date,time,UE3_acc_x,UE3_acc_y,UE3_acc_z
2018-12-13,04:28:02.378,0.21308899,0.32800293,9.639069000000001
2018-12-13,04:28:02.382,0.26097107,0.15562439,9.782715
2018-12-13,04:28:02.386,0.21788025,0.11970519999999998,9.950317
2018-12-13,04:28:02.390,0.09338379,0.14364624,10.053268
2018-12-13,04:28:02.394,0.0287323,0.17956543,10.113113
2018-12-13,04:28:02.398,-0.04069519,0.18435669,10.014954
2018-12-13,04:28:02.402,0.04788208,0.14604187,9.859328999999999
2018-12-13,04:28:02.406,0.24900818,0.16041565,9.787506
2018-12-13,04:28:02.448,0.22267151,0.12689209,9.648636
2018-12-13,04:28:02.452,0.27772522,0.05986023,9.689346
2018-12-13,04:28:02.455,0.3040619,0.05027771,9.871307
2018-12-13,04:28:02.458,0.3327942,0.08857727,9.888062
2018-12-13,04:28:02.461,0.30885315,0.13407898,9.854538
2018-12-13,04:28:02.464,0.18435669,0.16279602,9.88327
2018-12-13,04:28:02.467,0.1484375,0.0574646,9.880875
2018-12-13,04:28:02.470,0.28012085,0.10774231,9.8090515
2018-12-13,04:28:02.473,0.21308899,0.17237854,9.897644
2018-12-13,04:28:02.504,0.15562439,0.10055542,9.806656
2018-12-13,04:28:02.506,0.2346344,0.08380127,9.765961
2018-12-13,04:28:02.509,0.27055359999999995,0.08140564,9.768355999999999
2018-12-13,04:28:02.512,0.1484375,0.16998291,9.672592
2018-12-13,04:28:02.515,0.09338379,0.16279602,9.528931
2018-12-13,04:28:02.518,0.07901001,0.26574707,9.560058999999999
2018-12-13,04:28:02.520,0.17477417,0.28730774,9.536118
2018-12-13,04:28:02.522,0.18196106,0.3040619,9.641464
2018-12-13,04:28:02.524,0.12449646,0.29208374,9.679764
2018-12-13,04:28:02.589,0.21069336,0.28970337,9.751586999999999
2018-12-13,04:28:02.592,0.21548462,0.23703003,9.761169
2018-12-13,04:28:02.594,0.04071045,0.12689209,9.825821000000001
2018-12-13,04:28:02.597,-0.01914978,0.19392395,9.868912
2018-12-13,04:28:02.601,-0.033508300000000005,0.22505188,9.873702999999999
2018-12-13,04:28:02.604,0.07901001,0.18675232,9.816238
2018-12-13,04:28:02.606,0.21069336,0.19631958,9.782715
2018-12-13,04:28:02.608,0.20111084,0.22026062,9.835388
2018-12-13,04:28:02.610,0.22984314,0.18196106,9.825821000000001
2018-12-13,04:28:02.678,0.29928590000000005,0.15802002,9.890457000000001
2018-12-13,04:28:02.681,0.33039856,0.18196106,9.859328999999999
2018-12-13,04:28:02.683,0.44293213,0.06942749,9.574417
2018-12-13,04:28:02.685,0.27294922,0.2681427,9.677368
2018-12-13,04:28:02.687,0.05027771,0.43574524,9.871307
2018-12-13,04:28:02.688,-0.05267334,0.24420166,9.607941
2018-12-13,04:28:02.690,0.16281128,0.18435669,9.753983
2018-12-13,04:28:02.692,0.21548462,0.22026062,9.818634
2018-12-13,04:28:02.694,0.16999817,0.17956543,9.938339
2018-12-13,04:28:02.770,0.14605713,0.16041565,9.928772
2018-12-13,04:28:02.772,0.18675232,0.16519165,9.931152
2018-12-13,04:28:02.774,0.20350647,0.10295105,9.849762
2018-12-13,04:28:02.776,0.22984314,0.13168335,9.684555
2018-12-13,04:28:02.779,0.35194397,0.34475708,9.765961
2018-12-13,04:28:02.781,0.28012085,0.27053833,9.50499
2018-12-13,04:28:02.783,0.28970337,0.19392395,9.5720215
2018-12-13,04:28:02.785,0.46447754,0.22505188,9.502594
2018-12-13,04:28:02.786,0.533905,0.3471527,9.677368
2018-12-13,04:28:02.869,0.3208313,0.26574707,9.624695
2018-12-13,04:28:02.872,0.11013794,0.16041565,9.619919
2018-12-13,04:28:02.874,0.14605713,0.15802002,9.789902
2018-12-13,04:28:02.876,0.07901001,0.12689209,9.780319
2018-12-13,04:28:02.878,0.0574646,0.07901001,9.713287
2018-12-13,04:28:02.880,0.0574646,0.06942749,9.7061
2018-12-13,04:28:02.882,0.0574646,0.11491394,9.792297
2018-12-13,04:28:02.884,0.06704712,0.11013794,9.842575
2018-12-13,04:28:02.885,-0.01675415,0.10534668,10.019745
2018-12-13,04:28:02.960,-0.011962891000000002,0.04788208,9.993408
2018-12-13,04:28:02.963,0.11972046,0.13647461,9.98143
2018-12-13,04:28:02.964,0.18914795,0.19152832,9.780319
2018-12-13,04:28:02.966,0.21788025,0.20111084,9.667800999999999
2018-12-13,04:28:02.967,0.2753296,0.13647461,9.610336
2018-12-13,04:28:02.969,0.2753296,0.12689209,9.557663
2018-12-13,04:28:02.970,0.2346344,0.17477417,9.639069000000001
2018-12-13,04:28:02.973,0.20829773,0.1771698,9.619919
2018-12-13,04:28:02.974,0.22744751,0.22265625,9.560058999999999
2018-12-13,04:28:03.041,0.21069336,0.20590210000000003,9.667800999999999
2018-12-13,04:28:03.043,0.18435669,0.22505188,9.744415
2018-12-13,04:28:03.045,0.20111084,0.19631958,9.840179
2018-12-13,04:28:03.047,0.19871521,0.19152832,9.842575
2018-12-13,04:28:03.048,0.23703003,0.20350647,9.878494
2018-12-13,04:28:03.050,0.26097107,0.16041565,9.866516
2018-12-13,04:28:03.052,0.1771698,0.16758728,9.818634
2018-12-13,04:28:03.054,0.3040619,0.22984314,9.708496
2018-12-13,04:28:03.056,0.40461729999999996,0.33518982,9.600754
2018-12-13,04:28:03.135,0.33998108,0.26097107,9.509781
2018-12-13,04:28:03.137,0.3615265,0.31124878,9.641464
2018-12-13,04:28:03.139,0.22984314,0.19152832,9.64386
2018-12-13,04:28:03.140,0.22505188,0.16279602,9.610336
2018-12-13,04:28:03.141,0.08859253,0.15322876,9.64386
2018-12-13,04:28:03.142,0.02633667,0.12928772,9.710892
2018-12-13,04:28:03.144,0.07901001,0.13168335,9.837784
2018-12-13,04:28:03.145,0.30166626,0.22505188,9.938339
2018-12-13,04:28:03.146,0.32562256,0.23941039999999997,9.902435
2018-12-13,04:28:03.222,0.20829773,0.23703003,9.885666
2018-12-13,04:28:03.223,0.1771698,0.23941039999999997,9.811447
2018-12-13,04:28:03.224,0.1771698,0.25857544,9.8090515
2018-12-13,04:28:03.225,0.15802002,0.28730774,9.852158
2018-12-13,04:28:03.226,0.15802002,0.24899292,9.785110000000001
2018-12-13,04:28:03.227,0.18675232,0.19392395,9.758774
2018-12-13,04:28:03.228,0.23703003,0.22505188,9.701309
2018-12-13,04:28:03.229,0.25138855,0.18675232,9.509781
2018-12-13,04:28:03.230,0.15322876,0.16998291,9.497803
2018-12-13,04:28:03.320,0.18675232,0.11730957,9.552872
2018-12-13,04:28:03.322,0.24421692,0.18435669,9.670197
2018-12-13,04:28:03.324,0.25857544,0.13168335,9.670197
2018-12-13,04:28:03.325,0.42138672,0.19392395,9.710892
2018-12-13,04:28:03.326,0.28251648,0.18435669,9.871307
2018-12-13,04:28:03.327,0.3615265,0.14364624,9.859328999999999
2018-12-13,04:28:03.328,0.14126587,0.13885498,9.907211
2018-12-13,04:28:03.330,0.33039856,0.04788208,10.010162
2018-12-13,04:28:03.331,0.21069336,0.08140564,9.792297
2018-12-13,04:28:03.420,0.09338379,0.16998291,9.380493
2018-12-13,04:28:03.514,0.3040619,0.1484375,9.854538
2018-12-13,04:28:03.516,0.30885315,0.21546936,10.022140499999999
2018-12-13,04:28:03.518,0.3208313,0.16041565,10.1562195
2018-12-13,04:28:03.519,0.23703003,0.15322876,10.026932
2018-12-13,04:28:03.520,0.20350647,0.19392395,9.873702999999999
2018-12-13,04:28:03.521,0.10295105,0.11013794,9.74202
2018-12-13,04:28:03.523,-0.0023956299,0.24180603,9.514572
2018-12-13,04:28:03.524,0.08859253,0.19392395,9.46669
2018-12-13,04:28:03.525,0.08140564,0.25617979999999996,9.457108
2018-12-13,04:28:03.605,0.05506897,0.22026062,9.5720215
2018-12-13,04:28:03.606,0.01676941,0.22744751,9.584
2018-12-13,04:28:03.608,0.05506897,0.21069336,9.641464
2018-12-13,04:28:03.609,0.15802002,0.2753296,9.72525
2018-12-13,04:28:03.610,0.10774231,0.23941039999999997,9.777924
2018-12-13,04:28:03.612,0.10295105,0.22984314,9.780319
2018-12-13,04:28:03.614,0.07661438,0.24659729,9.701309
2018-12-13,04:28:03.615,0.20829773,0.16519165,9.610336
2018-12-13,04:28:03.617,0.2346344,0.27293396,9.600754
2018-12-13,04:28:03.696,0.26576233,0.25617979999999996,9.540909
2018-12-13,04:28:03.697,0.1149292,0.19631958,9.579208
2018-12-13,04:28:03.698,0.05506897,0.13407898,9.684555
2018-12-13,04:28:03.700,0.019165039,0.06224059999999999,9.7061
2018-12-13,04:28:03.701,0.02394104,0.03829956,9.751586999999999
2018-12-13,04:28:03.702,0.10534668,0.04069519,9.74202
2018-12-13,04:28:03.703,0.21788025,0.05506897,9.806656
2018-12-13,04:28:03.705,0.36871338,0.12210083,9.749207
2018-12-13,04:28:03.706,0.3543396,0.11730957,9.832993
2018-12-13,04:28:03.785,0.38067627,0.17956543,9.842575
2018-12-13,04:28:03.787,0.3327942,0.15322876,9.912003
2018-12-13,04:28:03.788,0.3040619,0.07182312,9.897644
2018-12-13,04:28:03.789,0.22027588,0.07421875,9.832993
2018-12-13,04:28:03.790,0.22744751,0.03112793,9.825821000000001
2018-12-13,04:28:03.791,0.10534668,0.02394104,9.840179
2018-12-13,04:28:03.792,0.07661438,0.0071868895999999995,9.799484
2018-12-13,04:28:03.793,0.07661438,0.06703186,9.701309
2018-12-13,04:28:03.794,0.12210083,0.10295105,9.584
2018-12-13,04:28:03.876,0.25138855,0.02394104,9.734833
2018-12-13,04:28:03.877,0.25857544,0.06942749,9.816238
2018-12-13,04:28:03.879,0.38067627,0.07901001,10.007767
2018-12-13,04:28:03.880,0.38786316,0.12210083,9.969467
2018-12-13,04:28:03.881,0.4812317,0.23941039999999997,9.88327
2018-12-13,04:28:03.882,0.46447754,0.3327942,9.713287
2018-12-13,04:28:03.883,0.36392212,0.28012085,9.588791
2018-12-13,04:28:03.884,0.22267151,0.25138855,9.488235000000001
2018-12-13,04:28:03.885,0.09577942,0.19631958,9.382889
2018-12-13,04:28:03.967,0.03112793,0.09576416,9.442749000000001
2018-12-13,04:28:03.968,0.0,-0.0095825195,9.631882000000001
2018-12-13,04:28:03.970,-0.07182312,0.08857727,9.674973
2018-12-13,04:28:03.971,-0.18913269,0.13407898,9.579208
2018-12-13,04:28:03.972,-0.15322876,0.06703186,9.56485
2018-12-13,04:28:03.973,-0.21069336,0.08618164,9.560058999999999
2018-12-13,04:28:03.975,0.27055359999999995,0.09576416,9.636673
2018-12-13,04:28:03.976,0.28970337,0.21786499,9.749207
2018-12-13,04:28:03.977,0.39265442,0.08857727,9.746811
2018-12-13,04:28:04.057,0.47406006,0.09336853,9.837784
2018-12-13,04:28:04.058,0.7326355,0.26574707,10.151428
2018-12-13,04:28:04.059,0.588974,0.17956543,10.168182
2018-12-13,04:28:04.060,0.52433777,-0.0023956299,9.900039999999999
2018-12-13,04:28:04.062,0.34477234,-0.15322876,9.787506
2018-12-13,04:28:04.063,0.27055359999999995,-0.11013794,9.689346
2018-12-13,04:28:04.065,0.4764557,0.15802002,9.732437
2018-12-13,04:28:04.067,0.4189911,0.05506897,9.780319
2018-12-13,04:28:04.068,0.33039856,-0.02154541,9.646255499999999
2018-12-13,04:28:04.147,0.29928590000000005,-0.08380127,9.751586999999999
2018-12-13,04:28:04.148,0.31124878,-0.17956543,9.56485
2018-12-13,04:28:04.149,0.1436615,-0.21069336,9.689346
2018-12-13,04:28:04.150,-0.07661438,-0.28012085,10.070022999999999
2018-12-13,04:28:04.150,-0.14604187,-0.40461729999999996,10.129883
2018-12-13,04:28:04.151,-0.30166626,-0.37828064,10.196914999999999
2018-12-13,04:28:04.152,0.06465149,-0.13887024,10.366897999999999
2018-12-13,04:28:04.153,0.36631775,0.18913269,10.235229499999999
2018-12-13,04:28:04.154,0.40940857,0.19152832,9.873702999999999
2018-12-13,04:28:04.237,0.33039856,0.21546936,9.457108
2018-12-13,04:28:04.240,0.23703003,0.32321167,9.423584
2018-12-13,04:28:04.242,0.25617979999999996,0.35194397,9.392471
2018-12-13,04:28:04.245,0.35194397,0.29927063,9.440353
2018-12-13,04:28:04.247,0.36392212,0.3830719,9.646255499999999
2018-12-13,04:28:04.250,0.35194397,0.37588499999999997,9.686950999999999
2018-12-13,04:28:04.253,0.28491209999999995,0.39025879999999996,9.799484
2018-12-13,04:28:04.255,0.30885315,0.1771698,9.844971000000001
2018-12-13,04:28:04.258,0.24900818,0.17237854,9.892853
2018-12-13,04:28:04.329,1.0319061,0.67515564,10.292679
2018-12-13,04:28:04.332,0.2346344,0.67037964,10.170577999999999
2018-12-13,04:28:04.335,0.5123595999999999,0.13885498,9.744415
2018-12-13,04:28:04.337,0.43574524,0.15802002,9.282333
2018-12-13,04:28:04.340,0.45729065,0.26574707,9.531326
2018-12-13,04:28:04.342,0.4908142,0.2346344,9.672592
2018-12-13,04:28:04.344,0.47406006,0.22744751,9.72287
2018-12-13,04:28:04.346,0.39505005,0.26574707,9.799484
2018-12-13,04:28:04.349,0.26576233,0.37109375,9.756378
2018-12-13,04:28:04.418,0.23703003,0.38786316,9.7061
2018-12-13,04:28:04.420,0.22505188,0.3543396,9.672592
2018-12-13,04:28:04.421,0.2346344,0.37828064,9.588791
2018-12-13,04:28:04.424,0.19393921,0.34954834,9.646255499999999
2018-12-13,04:28:04.426,0.1484375,0.3327942,9.677368
2018-12-13,04:28:04.428,0.15802002,0.24180603,9.799484
2018-12-13,04:28:04.430,0.13407898,0.27772522,9.789902
2018-12-13,04:28:04.433,0.15802002,0.34954834,9.763565
2018-12-13,04:28:04.436,0.21788025,0.30885315,9.734833
2018-12-13,04:28:04.508,0.21308899,0.3040619,9.708496
2018-12-13,04:28:04.510,0.292099,0.37109375,9.584
2018-12-13,04:28:04.511,0.37590027,0.40701294,9.459503
2018-12-13,04:28:04.512,0.44532776,0.46208190000000005,9.442749000000001
2018-12-13,04:28:04.513,0.46447754,0.5171509,9.423584
2018-12-13,04:28:04.514,0.5698241999999999,0.51475525,9.368514999999999
2018-12-13,04:28:04.515,0.60095215,0.55545044,9.323029
2018-12-13,04:28:04.516,0.56503296,0.5793915,9.294296000000001
2018-12-13,04:28:04.517,0.588974,0.5793915,9.301483000000001
2018-12-13,04:28:04.605,0.5315094,0.51475525,9.361343
2018-12-13,04:28:04.608,0.45729065,0.50038147,9.435562
2018-12-13,04:28:04.612,0.41180420000000006,0.44770813,9.588791
2018-12-13,04:28:04.615,0.31604004,0.47883606,9.710892
2018-12-13,04:28:04.618,0.30645752,0.35673523,9.787506
2018-12-13,04:28:04.620,0.2346344,0.37109375,9.861725
2018-12-13,04:28:04.622,0.21069336,0.36631775,9.749207
2018-12-13,04:28:04.623,0.18196106,0.27053833,9.718079
2018-12-13,04:28:04.624,0.19633484,0.27053833,9.691742
2018-12-13,04:28:04.689,0.11253357,0.25617979999999996,9.658218
2018-12-13,04:28:04.691,0.09577942,0.20111084,9.799484
2018-12-13,04:28:04.692,0.1436615,0.20829773,9.923981
2018-12-13,04:28:04.693,0.13168335,0.21786499,10.002991
2018-12-13,04:28:04.694,0.11732483,0.21786499,10.036499000000001
2018-12-13,04:28:04.695,0.16760254,0.24180603,10.017349000000001
2018-12-13,04:28:04.696,0.15083313,0.23223877,10.074814
2018-12-13,04:28:04.698,0.18435669,0.21308899,10.019745
2018-12-13,04:28:04.698,0.1484375,0.22984314,9.98143
2018-12-13,04:28:04.781,0.13647461,0.11491394,9.909607000000001
2018-12-13,04:28:04.785,0.1484375,0.11013794,9.926376
2018-12-13,04:28:04.787,0.11253357,0.0909729,9.878494
2018-12-13,04:28:04.789,0.08380127,0.05506897,9.837784
2018-12-13,04:28:04.792,0.07182312,0.02394104,9.828201
2018-12-13,04:28:04.795,0.07182312,0.06942749,9.888062
2018-12-13,04:28:04.797,0.01676941,0.011962891000000002,9.947922
2018-12-13,04:28:04.799,-0.01675415,0.05267334,10.012558
2018-12-13,04:28:04.801,-0.03829956,0.13647461,9.876099
2018-12-13,04:28:04.875,0.0047912598,0.1484375,9.837784
2018-12-13,04:28:04.877,-0.05506897,0.14125061,9.816238
2018-12-13,04:28:04.880,-0.11012268,0.06463623,9.732437
2018-12-13,04:28:04.882,-0.17477417,0.0023956299,9.701309
2018-12-13,04:28:04.884,-0.20350647,0.011962891000000002,9.792297
2018-12-13,04:28:04.887,-0.32321167,-0.09576416,9.931152
2018-12-13,04:28:04.889,0.07661438,0.13407898,9.967072
2018-12-13,04:28:04.891,0.3615265,0.4333496,10.029327
2018-12-13,04:28:04.893,0.37350464,0.33998108,9.871307
2018-12-13,04:28:04.965,0.26815796,0.24420166,9.56485
2018-12-13,04:28:04.968,0.21548462,0.30166626,9.507385000000001
2018-12-13,04:28:04.970,0.2633667,0.3040619,9.449921
2018-12-13,04:28:04.973,0.27055359999999995,0.31124878,9.519363
2018-12-13,04:28:04.976,0.36631775,0.25378418,9.591187
2018-12-13,04:28:04.979,0.3615265,0.23941039999999997,9.56485
2018-12-13,04:28:04.981,0.3830719,0.23941039999999997,9.54808
2018-12-13,04:28:04.984,0.31364440000000005,0.25138855,9.584
2018-12-13,04:28:04.986,0.35194397,0.18913269,9.694138
2018-12-13,04:28:05.052,0.35673523,0.13885498,9.713287
2018-12-13,04:28:05.054,0.33998108,0.21308899,9.667800999999999
2018-12-13,04:28:05.056,0.24182129,0.24899292,9.72525
2018-12-13,04:28:05.058,0.25138855,0.24899292,9.639069000000001
2018-12-13,04:28:05.059,0.21788025,0.22744751,9.603149
2018-12-13,04:28:05.061,0.2346344,0.22984314,9.655823
2018-12-13,04:28:05.063,0.20829773,0.22265625,9.612732000000001
2018-12-13,04:28:05.064,0.17239379999999999,0.22026062,9.6510315
2018-12-13,04:28:05.066,0.21788025,0.22744751,9.600754
2018-12-13,04:28:05.142,0.27055359999999995,0.16758728,9.478653
2018-12-13,04:28:05.144,0.20829773,0.25138855,9.473861999999999
2018-12-13,04:28:05.145,0.11732483,0.2633667,9.385284
2018-12-13,04:28:05.147,0.13407898,0.17237854,9.366135
2018-12-13,04:28:05.148,0.23942566,0.06224059999999999,9.294296000000001
2018-12-13,04:28:05.150,0.35194397,0.12210083,9.38768
2018-12-13,04:28:05.151,1.1061249,0.25138855,9.380493
2018-12-13,04:28:05.153,0.7039032,0.61291504,9.500198
2018-12-13,04:28:05.155,0.29689026,0.11730957,9.591187
2018-12-13,04:28:05.232,0.16041565,-0.32322693,9.342178
2018-12-13,04:28:05.234,0.19633484,-0.16760254,9.433166499999999
2018-12-13,04:28:05.236,0.24421692,0.20111084,9.615128
2018-12-13,04:28:05.238,0.22027588,0.25857544,9.758774
2018-12-13,04:28:05.240,0.16281128,0.30645752,9.931152
2018-12-13,04:28:05.241,0.16760254,0.33518982,9.988617
2018-12-13,04:28:05.243,0.371109,0.28970337,9.98143
2018-12-13,04:28:05.244,-0.12449646,0.19152832,10.165787
2018-12-13,04:28:05.246,-0.0909729,-0.011978148999999999,10.249588000000001
2018-12-13,04:28:05.323,0.03831482,0.0287323,10.072417999999999
2018-12-13,04:28:05.325,0.011978148999999999,0.2633667,10.108336999999999
2018-12-13,04:28:05.326,-0.05984497,0.21546936,10.019745
2018-12-13,04:28:05.328,0.02154541,0.2681427,9.730041499999999
2018-12-13,04:28:05.329,0.08859253,0.32081604,9.600754
2018-12-13,04:28:05.331,0.04071045,0.29208374,9.584
2018-12-13,04:28:05.332,0.02154541,0.24180603,9.641464
2018-12-13,04:28:05.334,-0.05744934,0.21069336,9.816238
2018-12-13,04:28:05.336,-0.1484375,0.34236145,9.900039999999999
2018-12-13,04:28:05.476,-0.10295105,0.27053833,9.830597000000001
2018-12-13,04:28:05.476,0.06465149,0.20350647,9.935944000000001
2018-12-13,04:28:05.477,0.17956543,0.12449646,9.847366000000001
2018-12-13,04:28:05.478,0.30166626,0.13885498,9.926376
2018-12-13,04:28:05.478,0.3543396,0.11491394,9.856933999999999
2018-12-13,04:28:05.479,0.30166626,0.17237854,9.861725
2018-12-13,04:28:05.479,0.27772522,0.21546936,9.852158
2018-12-13,04:28:05.480,0.27772522,0.19631958,9.859328999999999
2018-12-13,04:28:05.480,0.12449646,0.09576416,9.811447
2018-12-13,04:28:05.521,0.25617979999999996,0.16519165,9.856933999999999
2018-12-13,04:28:05.522,0.19154358,0.05267334,9.842575
2018-12-13,04:28:05.523,0.17239379999999999,-0.04548645,9.861725
2018-12-13,04:28:05.523,0.18675232,-0.0047912598,9.823425
2018-12-13,04:28:05.524,0.28491209999999995,-0.04309082,9.797089
2018-12-13,04:28:05.525,0.33758545,-0.08140564,9.832993
2018-12-13,04:28:05.525,0.29449463,0.06224059999999999,9.957489
2018-12-13,04:28:05.526,0.24900818,0.14364624,10.101150500000001
2018-12-13,04:28:05.526,0.13168335,0.12449646,10.137054
2018-12-13,04:28:05.594,0.16281128,0.18196106,10.101150500000001
2018-12-13,04:28:05.597,0.16760254,0.18435669,10.067627
2018-12-13,04:28:05.598,0.17239379999999999,0.20111084,9.993408
2018-12-13,04:28:05.600,0.12210083,0.13647461,9.847366000000001
2018-12-13,04:28:05.601,0.08619689999999999,0.21308899,9.560058999999999
2018-12-13,04:28:05.603,0.11732483,0.21546936,9.390075999999999
2018-12-13,04:28:05.604,0.12449646,0.14604187,9.244019
2018-12-13,04:28:05.606,0.05986023,0.08380127,9.32782
2018-12-13,04:28:05.607,0.0047912598,-0.05267334,9.502594
2018-12-13,04:28:05.684,-0.01914978,0.02633667,9.768355999999999
2018-12-13,04:28:05.686,-0.12928772,-0.011978148999999999,10.086777
2018-12-13,04:28:05.688,-0.18435669,-0.05986023,10.170577999999999
2018-12-13,04:28:05.689,-0.16040039,-0.03591919,9.916794
2018-12-13,04:28:05.690,-0.04309082,0.0023956299,9.670197
2018-12-13,04:28:05.690,0.04310608,0.04788208,9.524139
2018-12-13,04:28:05.692,0.08140564,0.08857727,9.425980000000001
2018-12-13,04:28:05.693,0.07901001,0.13407898,9.380493
2018-12-13,04:28:05.694,0.04071045,0.08140564,9.471466
2018-12-13,04:28:05.779,-0.0071716309999999995,0.05027771,9.5121765
2018-12-13,04:28:05.781,-0.03112793,0.03590393,9.6510315
2018-12-13,04:28:05.784,-0.06463623,-0.04309082,9.80188
2018-12-13,04:28:05.785,-0.04788208,-0.09815979,9.935944000000001
2018-12-13,04:28:05.786,0.011978148999999999,-0.16281128,10.115509
2018-12-13,04:28:05.787,0.1771698,-0.13407898,10.065230999999999
2018-12-13,04:28:05.788,0.0574646,-0.11970519999999998,10.036499000000001
2018-12-13,04:28:05.789,0.011978148999999999,-0.11253357,9.878494
2018-12-13,04:28:05.790,0.019165039,-0.06942749,9.660614
2018-12-13,04:28:05.865,0.10774231,-0.05027771,9.576813000000001
2018-12-13,04:28:05.868,0.10295105,-0.03831482,9.660614
2018-12-13,04:28:05.870,0.10295105,-0.13168335,9.732437
2018-12-13,04:28:05.872,0.16281128,-0.18675232,9.770752
2018-12-13,04:28:05.874,0.15322876,0.05027771,9.828201
2018-12-13,04:28:05.876,-0.12449646,-0.20350647,9.615128
2018-12-13,04:28:05.878,0.10534668,-0.22984314,9.761169
2018-12-13,04:28:05.879,0.02154541,-0.11253357,9.876099
2018-12-13,04:28:05.880,-0.13645935,-0.23223877,9.888062
2018-12-13,04:28:05.958,-0.033508300000000005,-0.24661255,9.794692999999999
2018-12-13,04:28:05.960,0.12210083,-0.12928772,9.414017
2018-12-13,04:28:05.961,0.16520691,-0.0071868895999999995,9.528931
2018-12-13,04:28:05.963,0.14605713,-0.08619689999999999,9.5672455
2018-12-13,04:28:05.965,0.06465149,-0.1436615,9.454711999999999
2018-12-13,04:28:05.967,0.02394104,-0.014373779,9.595978
2018-12-13,04:28:05.968,0.01676941,0.16041565,9.737228
2018-12-13,04:28:05.970,0.04310608,0.25378418,9.730041499999999
2018-12-13,04:28:05.972,-0.02154541,0.29208374,9.665405
2018-12-13,04:28:06.046,-0.04069519,0.31602478,9.701309
2018-12-13,04:28:06.048,0.01676941,0.32800293,9.646255499999999
2018-12-13,04:28:06.049,0.0574646,0.22744751,9.770752
2018-12-13,04:28:06.051,0.05267334,0.22026062,9.773147999999999
2018-12-13,04:28:06.053,0.08859253,0.22744751,9.854538
2018-12-13,04:28:06.055,0.10534668,0.18675232,9.96228
2018-12-13,04:28:06.057,0.14126587,0.16998291,9.928772
2018-12-13,04:28:06.058,0.22027588,0.22744751,9.847366000000001
2018-12-13,04:28:06.060,0.24182129,0.20350647,9.859328999999999
2018-12-13,04:28:06.136,0.21069336,0.20590210000000003,9.959885
2018-12-13,04:28:06.139,0.22267151,0.16758728,9.991013
2018-12-13,04:28:06.141,0.24900818,0.16998291,9.950317
2018-12-13,04:28:06.142,0.24661255,0.16998291,9.88327
2018-12-13,04:28:06.144,0.20350647,0.23941039999999997,9.873702999999999
2018-12-13,04:28:06.145,0.27294922,0.22984314,9.842575
2018-12-13,04:28:06.147,0.25378418,0.23941039999999997,9.828201
2018-12-13,04:28:06.148,0.23703003,0.19392395,9.892853
2018-12-13,04:28:06.150,0.25378418,0.20590210000000003,9.876099
2018-12-13,04:28:06.227,0.25617979999999996,0.16519165,9.876099
2018-12-13,04:28:06.230,0.15322876,0.12449646,9.988617
2018-12-13,04:28:06.232,0.1149292,0.09336853,10.096359
2018-12-13,04:28:06.234,0.0287323,0.22265625,10.170577999999999
2018-12-13,04:28:06.236,0.02154541,0.26097107,10.163391
2018-12-13,04:28:06.238,0.019165039,0.28730774,10.151428
2018-12-13,04:28:06.240,0.0071868895999999995,0.25617979999999996,10.086777
2018-12-13,04:28:06.241,0.07901001,0.2681427,10.024536
2018-12-13,04:28:06.243,0.07901001,0.27053833,10.017349000000001
2018-12-13,04:28:06.317,0.0023956299,0.3256073,9.957489
2018-12-13,04:28:06.319,0.02394104,0.34236145,9.825821000000001
2018-12-13,04:28:06.321,0.04071045,0.3950348,9.667800999999999
2018-12-13,04:28:06.322,0.16041565,0.5817871,9.447525
2018-12-13,04:28:06.324,0.07661438,0.5219269,9.251205
2018-12-13,04:28:06.325,0.23942566,0.38546753,9.174591
2018-12-13,04:28:06.327,0.32562256,0.35913086,9.263183999999999
2018-12-13,04:28:06.328,0.27055359999999995,0.41419983,9.378098
2018-12-13,04:28:06.329,0.36392212,0.33518982,9.411621
2018-12-13,04:28:06.407,0.28491209999999995,0.24180603,9.471466
2018-12-13,04:28:06.409,0.38786316,0.23941039999999997,9.538513
2018-12-13,04:28:06.410,0.3543396,0.32081604,9.593582000000001
2018-12-13,04:28:06.411,0.31604004,0.21546936,9.749207
2018-12-13,04:28:06.412,0.2753296,0.2633667,9.746811
2018-12-13,04:28:06.413,0.28491209999999995,0.28012085,9.720474000000001
2018-12-13,04:28:06.413,0.28012085,0.31602478,9.658218
2018-12-13,04:28:06.414,0.31364440000000005,0.33518982,9.557663
2018-12-13,04:28:06.415,0.28491209999999995,0.33758545,9.433166499999999
2018-12-13,04:28:06.498,0.28730774,0.31364440000000005,9.366135
2018-12-13,04:28:06.500,0.19154358,0.31124878,9.38768
2018-12-13,04:28:06.502,0.17956543,0.32800293,9.452316
2018-12-13,04:28:06.503,0.1771698,0.29208374,9.588791
2018-12-13,04:28:06.505,0.10534668,0.2753296,9.672592
2018-12-13,04:28:06.506,0.13168335,0.19152832,9.8090515
2018-12-13,04:28:06.508,0.16760254,0.20590210000000003,9.837784
2018-12-13,04:28:06.509,0.13407898,0.22265625,9.876099
2018-12-13,04:28:06.510,0.09815979,0.17237854,9.964675999999999
2018-12-13,04:28:06.588,0.07182312,0.15083313,10.002991
2018-12-13,04:28:06.590,0.06944275,0.21786499,9.967072
2018-12-13,04:28:06.591,0.06465149,0.19392395,9.933548
2018-12-13,04:28:06.592,0.04071045,0.16041565,9.940735
2018-12-13,04:28:06.594,0.0071868895999999995,0.19152832,9.933548
2018-12-13,04:28:06.595,0.0574646,0.17237854,10.010162
2018-12-13,04:28:06.596,0.08619689999999999,0.2346344,9.919189
2018-12-13,04:28:06.597,0.09577942,0.27293396,9.852158
2018-12-13,04:28:06.598,0.09098816,0.29927063,9.746811
2018-12-13,04:28:06.679,0.1484375,0.30166626,9.677368
2018-12-13,04:28:06.682,0.13647461,0.25617979999999996,9.648636
2018-12-13,04:28:06.683,0.1484375,0.24899292,9.694138
2018-12-13,04:28:06.685,0.15083313,0.23223877,9.694138
2018-12-13,04:28:06.687,0.18914795,0.21546936,9.66301
2018-12-13,04:28:06.688,0.15322876,0.21546936,9.636673
2018-12-13,04:28:06.690,0.09577942,0.21546936,9.507385000000001
2018-12-13,04:28:06.691,0.10295105,0.24659729,9.509781
2018-12-13,04:28:06.693,0.14605713,0.30645752,9.425980000000001
2018-12-13,04:28:06.768,0.14126587,0.22026062,9.361343
2018-12-13,04:28:06.770,0.11732483,0.27293396,9.28952
2018-12-13,04:28:06.772,0.19871521,0.28730774,9.203323
2018-12-13,04:28:06.774,0.19871521,0.23223877,9.143463
2018-12-13,04:28:06.776,0.26097107,0.15802002,9.203323
2018-12-13,04:28:06.778,0.23223877,0.13407898,9.299088000000001
2018-12-13,04:28:06.779,0.24900818,0.09576416,9.536118
2018-12-13,04:28:06.781,0.22267151,0.014358520500000001,9.737228
2018-12-13,04:28:06.782,0.20111084,0.0071868895999999995,9.96228
2018-12-13,04:28:06.862,0.14605713,0.0,10.082001
2018-12-13,04:28:06.863,0.14605713,0.07661438,10.151428
2018-12-13,04:28:06.865,0.3040619,0.0,10.079605
2018-12-13,04:28:06.866,0.36871338,-0.06704712,10.036499000000001
2018-12-13,04:28:06.867,0.5195465,-0.13887024,10.137054
2018-12-13,04:28:06.867,0.57940674,-0.18914795,10.242401
2018-12-13,04:28:06.868,0.5195465,-0.31843567,10.462677000000001
2018-12-13,04:28:06.869,0.44293213,-0.40222168,10.55365
2018-12-13,04:28:06.869,0.31604004,-0.34716797,10.596741
2018-12-13,04:28:06.949,0.37828064,-0.16760254,10.39563
2018-12-13,04:28:06.952,0.35913086,-0.11970519999999998,10.151428
2018-12-13,04:28:06.954,0.26097107,0.08380127,9.909607000000001
2018-12-13,04:28:06.956,0.3830719,0.12689209,9.584
2018-12-13,04:28:06.958,0.3543396,0.18675232,9.349364999999999
2018-12-13,04:28:06.960,0.47406006,0.2346344,9.181778
2018-12-13,04:28:06.962,0.4692688,0.20111084,9.124313
2018-12-13,04:28:06.963,0.4189911,0.16519165,9.174591
2018-12-13,04:28:06.964,0.46208190000000005,0.11251831,9.368514999999999
2018-12-13,04:28:07.041,0.46208190000000005,0.15802002,9.595978
2018-12-13,04:28:07.043,0.38546753,0.15322876,9.710892
2018-12-13,04:28:07.045,0.40223694,0.11013794,9.753983
2018-12-13,04:28:07.046,0.45011902,0.13168335,9.787506
2018-12-13,04:28:07.048,0.43814087,0.13168335,9.797089
2018-12-13,04:28:07.049,0.4189911,0.06703186,9.856933999999999
2018-12-13,04:28:07.050,0.4980011,0.12210083,9.787506
2018-12-13,04:28:07.052,0.53630066,0.0909729,9.710892
2018-12-13,04:28:07.053,0.5458831999999999,0.12928772,9.660614
2018-12-13,04:28:07.135,0.63446045,0.06224059999999999,9.641464
2018-12-13,04:28:07.137,0.5602417,0.11491394,9.708496
2018-12-13,04:28:07.139,0.4285736,0.11730957,9.8641205
2018-12-13,04:28:07.140,0.40701294,0.11970519999999998,9.959885
2018-12-13,04:28:07.142,0.3208313,0.10295105,9.950317
2018-12-13,04:28:07.144,0.35673523,0.10055542,10.007767
2018-12-13,04:28:07.145,0.29449463,0.05986023,10.002991
2018-12-13,04:28:07.146,0.2633667,0.17956543,9.97905
2018-12-13,04:28:07.148,0.32562256,0.1771698,9.871307
2018-12-13,04:28:07.223,0.3327942,0.17956543,9.947922
2018-12-13,04:28:07.225,0.22027588,0.16998291,9.988617
2018-12-13,04:28:07.226,0.20350647,0.19152832,10.079605
2018-12-13,04:28:07.228,0.19393921,0.12449646,10.153824
2018-12-13,04:28:07.229,0.22027588,0.06224059999999999,10.216064
2018-12-13,04:28:07.231,0.25378418,0.0909729,10.165787
2018-12-13,04:28:07.233,0.32322693,0.10295105,10.034103
2018-12-13,04:28:07.234,0.37350464,0.11013794,9.909607000000001
2018-12-13,04:28:07.236,0.34716797,0.08380127,9.840179
2018-12-13,04:28:07.312,0.35673523,0.20350647,9.694138
2018-12-13,04:28:07.315,0.28251648,0.26097107,9.610336
2018-12-13,04:28:07.317,0.28730774,0.28491209999999995,9.543304
2018-12-13,04:28:07.318,0.37828064,0.40940857,9.617523
2018-12-13,04:28:07.320,0.24661255,0.20829773,9.428375
2018-12-13,04:28:07.322,0.06944275,0.18435669,9.306274
2018-12-13,04:28:07.324,-0.04309082,0.11491394,9.399643
2018-12-13,04:28:07.325,0.011978148999999999,0.06703186,9.593582000000001
2018-12-13,04:28:07.327,0.12689209,0.16041565,9.902435
2018-12-13,04:28:07.402,0.15083313,0.26574707,10.014954
2018-12-13,04:28:07.403,0.22027588,0.26574707,9.861725
2018-12-13,04:28:07.404,0.32800293,0.49320984,9.840179
2018-12-13,04:28:07.405,0.47885132,0.6177063,9.595978
2018-12-13,04:28:07.406,0.24661255,0.37109375,9.217682
2018-12-13,04:28:07.407,0.18675232,0.30885315,9.0572815
2018-12-13,04:28:07.408,0.5602417,0.76135254,9.035721
2018-12-13,04:28:07.408,0.42138672,0.39743042,9.382889
2018-12-13,04:28:07.409,0.69192505,0.35194397,9.2751465
2018-12-13,04:28:07.499,0.34716797,0.65600586,9.435562
2018-12-13,04:28:07.501,0.28491209999999995,0.44770813,9.639069000000001
2018-12-13,04:28:07.503,0.3543396,0.36392212,9.734833
2018-12-13,04:28:07.504,0.19154358,0.3950348,9.967072
2018-12-13,04:28:07.505,0.10055542,0.37588499999999997,10.017349000000001
2018-12-13,04:28:07.508,0.0071868895999999995,0.29927063,9.912003
2018-12-13,04:28:07.508,-0.06224059999999999,0.18913269,9.732437
2018-12-13,04:28:07.509,-0.08618164,0.05506897,9.686950999999999
2018-12-13,04:28:07.510,-0.18196106,0.0047912598,9.629486
2018-12-13,04:28:07.583,-0.10774231,-0.09815979,9.612732000000001
2018-12-13,04:28:07.585,-0.15802002,-0.07661438,9.555267
2018-12-13,04:28:07.586,0.07661438,0.014358520500000001,9.581603999999999
2018-12-13,04:28:07.588,0.22744751,0.22984314,9.641464
2018-12-13,04:28:07.590,0.21548462,0.27772522,9.818634
2018-12-13,04:28:07.592,0.21548462,0.25378418,9.811447
2018-12-13,04:28:07.595,0.37828064,0.23941039999999997,9.797089
2018-12-13,04:28:07.597,0.371109,0.24420166,9.794692999999999
2018-12-13,04:28:07.598,0.42138672,0.16041565,9.634277
2018-12-13,04:28:07.677,0.32562256,0.03829956,9.622314
2018-12-13,04:28:07.679,0.292099,0.08140564,9.648636
2018-12-13,04:28:07.680,0.16760254,-0.01675415,9.837784
2018-12-13,04:28:07.682,0.26097107,0.08857727,9.993408
2018-12-13,04:28:07.683,0.24900818,0.25617979999999996,10.046082
2018-12-13,04:28:07.685,0.20829773,0.22984314,10.096359
2018-12-13,04:28:07.686,0.26576233,0.1771698,10.091567999999999
2018-12-13,04:28:07.688,0.28491209999999995,0.14364624,10.182556
2018-12-13,04:28:07.689,0.27055359999999995,0.13407898,10.213669
2018-12-13,04:28:07.765,0.34477234,0.06703186,10.163391
2018-12-13,04:28:07.767,0.34237670000000003,0.05986023,10.165787
2018-12-13,04:28:07.769,0.31124878,0.15562439,10.177764999999999
2018-12-13,04:28:07.771,0.33039856,0.15322876,10.1801605
2018-12-13,04:28:07.773,0.23942566,0.15083313,10.074814
2018-12-13,04:28:07.775,0.16520691,0.18435669,9.993408
2018-12-13,04:28:07.777,0.21788025,0.3040619,9.928772
2018-12-13,04:28:07.778,0.27294922,0.28730774,9.900039999999999
2018-12-13,04:28:07.780,0.30885315,0.32321167,9.900039999999999
2018-12-13,04:28:07.854,0.31124878,0.29927063,9.900039999999999
2018-12-13,04:28:07.857,0.2633667,0.2633667,9.945526
2018-12-13,04:28:07.858,0.28491209999999995,0.20111084,9.938339
2018-12-13,04:28:07.860,0.2753296,0.17237854,9.844971000000001
2018-12-13,04:28:07.861,0.31364440000000005,0.31602478,9.689346
2018-12-13,04:28:07.863,0.29449463,0.3615265,9.765961
2018-12-13,04:28:07.864,0.29689026,0.37348938,9.698929
2018-12-13,04:28:07.866,0.292099,0.48602295,9.605545
2018-12-13,04:28:07.867,0.29449463,0.47164917,9.607941
2018-12-13,04:28:07.947,0.33518982,0.5123595999999999,9.253601
2018-12-13,04:28:07.949,0.23703003,0.3950348,9.097977
2018-12-13,04:28:07.950,0.21308899,0.35673523,9.311066
2018-12-13,04:28:07.952,0.20111084,0.39743042,9.394852
2018-12-13,04:28:07.953,0.25857544,0.43574524,9.464294
2018-12-13,04:28:07.955,0.19154358,0.35673523,9.615128
2018-12-13,04:28:07.957,0.18435669,0.37828064,9.679764
2018-12-13,04:28:07.958,0.25617979999999996,0.42855835,9.80188
2018-12-13,04:28:07.959,0.26097107,0.42137146,9.866516
2018-12-13,04:28:08.035,0.22984314,0.40940857,9.696533
2018-12-13,04:28:08.038,0.30645752,0.3543396,9.603149
2018-12-13,04:28:08.039,0.29928590000000005,0.32321167,9.646255499999999
2018-12-13,04:28:08.041,0.34477234,0.38067627,9.634277
2018-12-13,04:28:08.042,0.39505005,0.38786316,9.658218
2018-12-13,04:28:08.044,0.39265442,0.38786316,9.710892
2018-12-13,04:28:08.045,0.4189911,0.39743042,9.797089
2018-12-13,04:28:08.047,0.46208190000000005,0.40701294,9.97905
2018-12-13,04:28:08.048,0.36392212,0.42855835,10.026932
2018-12-13,04:28:08.126,0.34477234,0.37588499999999997,10.04129
2018-12-13,04:28:08.129,0.371109,0.34954834,10.010162
2018-12-13,04:28:08.130,0.36631775,0.3830719,10.019745
2018-12-13,04:28:08.132,0.39744568,0.3543396,9.971863
2018-12-13,04:28:08.135,0.25617979999999996,0.39025879999999996,10.002991
2018-12-13,04:28:08.137,0.371109,0.3615265,9.844971000000001
2018-12-13,04:28:08.138,0.37828064,0.42137146,9.861725
2018-12-13,04:28:08.140,0.28491209999999995,0.41419983,9.96228
2018-12-13,04:28:08.142,0.22505188,0.37588499999999997,9.964675999999999
2018-12-13,04:28:08.216,0.22984314,0.45249940000000005,9.98143
2018-12-13,04:28:08.219,0.18435669,0.40701294,10.026932
2018-12-13,04:28:08.220,0.22984314,0.48841858,9.758774
2018-12-13,04:28:08.222,0.13168335,0.46447754,9.713287
2018-12-13,04:28:08.223,0.15083313,0.5195465,9.775542999999999
2018-12-13,04:28:08.225,0.21548462,0.4333496,9.74202
2018-12-13,04:28:08.226,0.31604004,0.38786316,9.615128
2018-12-13,04:28:08.227,0.6320800999999999,0.61531067,9.667800999999999
2018-12-13,04:28:08.229,0.24900818,0.48362732,9.576813000000001
2018-12-13,04:28:08.307,0.25138855,0.22505188,9.378098
2018-12-13,04:28:08.310,0.37350464,0.47644043,9.121917999999999
2018-12-13,04:28:08.313,0.40461729999999996,0.66319275,9.076431
2018-12-13,04:28:08.315,0.4692688,0.667984,9.004608000000001
2018-12-13,04:28:08.316,0.43814087,0.6584015000000001,8.95433
2018-12-13,04:28:08.318,0.38786316,0.66319275,9.030945
2018-12-13,04:28:08.319,0.39025879999999996,0.6823425,9.129105000000001
2018-12-13,04:28:08.321,0.37590027,0.59854126,9.260788
2018-12-13,04:28:08.322,0.35913086,0.5123595999999999,9.342178
2018-12-13,04:28:08.395,0.35673523,0.5817871,9.493027
2018-12-13,04:28:08.396,0.39505005,0.53630066,9.672592
2018-12-13,04:28:08.397,0.42378235,0.48362732,9.74202
2018-12-13,04:28:08.398,0.3615265,0.41419983,9.806656
2018-12-13,04:28:08.398,0.34477234,0.3615265,9.82103
2018-12-13,04:28:08.399,0.35194397,0.3615265,9.844971000000001
2018-12-13,04:28:08.400,0.39505005,0.34475708,9.823425
2018-12-13,04:28:08.400,0.43574524,0.36631775,9.832993
2018-12-13,04:28:08.401,0.42378235,0.42616272,9.871307
2018-12-13,04:28:08.487,0.41419983,0.40222168,9.859328999999999
2018-12-13,04:28:08.489,0.34477234,0.3327942,9.837784
2018-12-13,04:28:08.491,0.29689026,0.39025879999999996,9.775542999999999
2018-12-13,04:28:08.493,0.34477234,0.3615265,9.734833
2018-12-13,04:28:08.494,0.3040619,0.3615265,9.753983
2018-12-13,04:28:08.496,0.29928590000000005,0.25617979999999996,9.737228
2018-12-13,04:28:08.497,0.28730774,0.24180603,9.730041499999999
2018-12-13,04:28:08.499,0.32800293,0.19392395,9.854538
2018-12-13,04:28:08.500,0.38546753,0.30645752,9.890457000000001
2018-12-13,04:28:08.580,0.42138672,0.33518982,9.878494
2018-12-13,04:28:08.582,0.48362732,0.35913086,9.871307
2018-12-13,04:28:08.584,0.6775665,0.43814087,9.720474000000001
2018-12-13,04:28:08.586,0.3040619,0.33039856,9.753983
2018-12-13,04:28:08.587,0.33039856,0.35913086,9.753983
2018-12-13,04:28:08.589,0.31124878,0.33518982,9.713287
2018-12-13,04:28:08.590,0.34477234,0.29208374,9.80188
2018-12-13,04:28:08.592,0.41180420000000006,0.3327942,9.919189
2018-12-13,04:28:08.594,0.3495636,0.5099640000000001,9.780319
2018-12-13,04:28:08.671,0.2753296,0.54826355,9.658218
2018-12-13,04:28:08.674,0.27294922,0.64164734,9.540909
2018-12-13,04:28:08.676,0.28491209999999995,0.5099640000000001,9.440353
2018-12-13,04:28:08.678,0.3327942,0.48362732,9.433166499999999
2018-12-13,04:28:08.680,0.36871338,0.47644043,9.521744
2018-12-13,04:28:08.682,0.42617798,0.5171509,9.579208
2018-12-13,04:28:08.683,0.36631775,0.47883606,9.449921
2018-12-13,04:28:08.685,0.4405365,0.48362732,9.315857000000001
2018-12-13,04:28:08.686,0.28730774,0.40461729999999996,9.402039
2018-12-13,04:28:08.764,0.21069336,0.41180420000000006,9.531326
2018-12-13,04:28:08.766,0.10295105,0.39263916,9.701309
2018-12-13,04:28:08.768,0.03831482,0.33039856,9.888062
2018-12-13,04:28:08.769,0.11253357,0.36869812,9.904816
2018-12-13,04:28:08.771,0.03831482,0.38067627,9.823425
2018-12-13,04:28:08.773,0.10055542,0.32800293,9.844971000000001
2018-12-13,04:28:08.775,0.19154358,0.30166626,9.794692999999999
2018-12-13,04:28:08.777,0.28730774,0.27293396,9.703705000000001
2018-12-13,04:28:08.779,0.39025879999999996,0.32321167,9.708496
2018-12-13,04:28:08.849,0.3208313,0.28251648,9.72525
2018-12-13,04:28:08.852,0.29928590000000005,0.21308899,9.794692999999999
2018-12-13,04:28:08.854,0.19393921,0.20590210000000003,9.825821000000001
2018-12-13,04:28:08.856,0.14126587,0.19152832,9.876099
2018-12-13,04:28:08.857,0.11972046,0.21069336,9.847366000000001
2018-12-13,04:28:08.859,0.24182129,0.25138855,9.80188
2018-12-13,04:28:08.860,0.24182129,0.23223877,9.928772
2018-12-13,04:28:08.862,0.2633667,0.20829773,9.852158
2018-12-13,04:28:08.863,0.26097107,0.14364624,9.852158
2018-12-13,04:28:08.939,0.30885315,0.15802002,9.921585
2018-12-13,04:28:08.942,0.30645752,0.19152832,9.923981
2018-12-13,04:28:08.943,0.25857544,0.23941039999999997,10.000595
2018-12-13,04:28:08.945,0.20829773,0.22505188,10.010162
2018-12-13,04:28:08.946,0.1771698,0.25857544,10.036499000000001
2018-12-13,04:28:08.948,0.17477417,0.2681427,10.06044
2018-12-13,04:28:08.949,0.24900818,0.25378418,9.976654
2018-12-13,04:28:08.951,0.29928590000000005,0.30645752,9.852158
2018-12-13,04:28:08.952,0.33518982,0.3471527,9.749207
2018-12-13,04:28:09.030,0.28730774,0.34236145,9.619919
2018-12-13,04:28:09.032,0.28012085,0.28491209999999995,9.552872
2018-12-13,04:28:09.033,0.28730774,0.3471527,9.555267
2018-12-13,04:28:09.035,0.2753296,0.3543396,9.619919
2018-12-13,04:28:09.037,0.22505188,0.32321167,9.708496
2018-12-13,04:28:09.038,0.25617979999999996,0.3615265,9.770752
2018-12-13,04:28:09.040,0.16041565,0.25857544,9.773147999999999
2018-12-13,04:28:09.041,0.13647461,0.26574707,9.770752
2018-12-13,04:28:09.043,0.14605713,0.24420166,9.660614
2018-12-13,04:28:09.120,0.16520691,0.22505188,9.54808
2018-12-13,04:28:09.122,0.2346344,0.24899292,9.481049
2018-12-13,04:28:09.124,0.19393921,0.22026062,9.478653
2018-12-13,04:28:09.125,0.26815796,0.19871521,9.526535
2018-12-13,04:28:09.127,0.21788025,0.23703003,9.591187
2018-12-13,04:28:09.128,0.25617979999999996,0.18196106,9.600754
2018-12-13,04:28:09.129,0.22984314,0.16519165,9.718079
2018-12-13,04:28:09.131,0.25857544,0.11491394,9.799484
2018-12-13,04:28:09.133,0.26097107,0.12928772,9.8090515
2018-12-13,04:28:09.214,0.25378418,0.11251831,9.737228
2018-12-13,04:28:09.217,0.23703003,0.12449646,9.763565
2018-12-13,04:28:09.219,0.2346344,0.13407898,9.74202
2018-12-13,04:28:09.221,0.22505188,0.12928772,9.682159
2018-12-13,04:28:09.222,0.22744751,0.15802002,9.653427
2018-12-13,04:28:09.223,0.20829773,0.17237854,9.698929
2018-12-13,04:28:09.224,0.21548462,0.15083313,9.739624000000001
2018-12-13,04:28:09.225,0.25857544,0.08380127,9.8090515
2018-12-13,04:28:09.225,0.27294922,0.13407898,9.844971000000001
2018-12-13,04:28:09.301,0.25378418,0.07661438,9.823425
2018-12-13,04:28:09.303,0.32800293,0.08618164,9.787506
2018-12-13,04:28:09.305,0.23942566,0.10534668,9.765961
2018-12-13,04:28:09.307,0.27055359999999995,0.08857727,9.758774
2018-12-13,04:28:09.308,0.25378418,0.14604187,9.770752
2018-12-13,04:28:09.310,0.28012085,0.19152832,9.737228
2018-12-13,04:28:09.311,0.2346344,0.23703003,9.749207
2018-12-13,04:28:09.313,0.2753296,0.25378418,9.679764
2018-12-13,04:28:09.315,0.25378418,0.22265625,9.684555
2018-12-13,04:28:09.391,0.22267151,0.19152832,9.598358000000001
2018-12-13,04:28:09.394,0.1771698,0.24659729,9.660614
2018-12-13,04:28:09.395,0.23942566,0.18196106,9.751586999999999
2018-12-13,04:28:09.397,0.15802002,0.16998291,9.876099
2018-12-13,04:28:09.398,0.26097107,0.1484375,9.957489
2018-12-13,04:28:09.400,0.2753296,0.18675232,9.907211
2018-12-13,04:28:09.401,0.32800293,0.19392395,9.830597000000001
2018-12-13,04:28:09.403,0.32322693,0.18913269,9.763565
2018-12-13,04:28:09.404,0.24182129,0.24659729,9.720474000000001
2018-12-13,04:28:09.482,0.25617979999999996,0.25857544,9.674973
2018-12-13,04:28:09.485,0.28491209999999995,0.29447937,9.698929
2018-12-13,04:28:09.486,0.25857544,0.26097107,9.785110000000001
2018-12-13,04:28:09.488,0.28012085,0.26574707,9.859328999999999
2018-12-13,04:28:09.489,0.28251648,0.20829773,9.96228
2018-12-13,04:28:09.490,0.28730774,0.15562439,9.952713000000001
2018-12-13,04:28:09.493,0.25857544,0.13647461,9.835388
2018-12-13,04:28:09.494,0.24182129,0.11251831,9.8641205
2018-12-13,04:28:09.496,0.292099,0.24659729,9.670197
2018-12-13,04:28:09.574,0.31843567,0.19631958,9.655823
2018-12-13,04:28:09.578,0.28970337,0.19631958,9.730041499999999
2018-12-13,04:28:09.580,0.29689026,0.18196106,9.780319
2018-12-13,04:28:09.582,0.28730774,0.09576416,9.868912
2018-12-13,04:28:09.584,0.25378418,0.05027771,9.991013
2018-12-13,04:28:09.585,0.31604004,0.04069519,9.995804
2018-12-13,04:28:09.587,0.32562256,0.01675415,9.983825999999999
2018-12-13,04:28:09.588,0.33758545,0.12928772,9.916794
2018-12-13,04:28:09.590,0.33998108,0.13407898,9.765961
2018-12-13,04:28:09.667,0.28970337,0.19631958,9.631882000000001
2018-12-13,04:28:09.669,0.24182129,0.1771698,9.519363
2018-12-13,04:28:09.671,0.22744751,0.23223877,9.543304
2018-12-13,04:28:09.673,0.25617979999999996,0.28012085,9.560058999999999
2018-12-13,04:28:09.675,0.23942566,0.27293396,9.595978
2018-12-13,04:28:09.677,0.27772522,0.25617979999999996,9.600754
2018-12-13,04:28:09.679,0.24661255,0.21308899,9.536118
2018-12-13,04:28:09.682,0.25138855,0.21069336,9.526535
2018-12-13,04:28:09.683,0.24421692,0.21308899,9.514572
2018-12-13,04:28:09.753,0.25138855,0.17477417,9.497803
2018-12-13,04:28:09.755,0.19871521,0.17477417,9.5672455
2018-12-13,04:28:09.757,0.12928772,0.18435669,9.576813000000001
2018-12-13,04:28:09.759,0.21308899,0.19871521,9.677368
2018-12-13,04:28:09.760,0.3040619,0.12928772,9.622314
2018-12-13,04:28:09.762,0.33998108,0.12928772,9.509781
2018-12-13,04:28:09.763,0.3615265,0.08380127,9.576813000000001
2018-12-13,04:28:09.765,0.39744568,0.07661438,9.619919
2018-12-13,04:28:09.766,0.44293213,0.009567261,9.715683
2018-12-13,04:28:09.843,0.42617798,0.06224059999999999,9.811447
2018-12-13,04:28:09.846,0.35673523,0.07901001,9.935944000000001
2018-12-13,04:28:09.847,0.2753296,-0.0287323,10.002991
2018-12-13,04:28:09.849,0.24182129,-0.06942749,10.014954
2018-12-13,04:28:09.850,0.27294922,-0.04788208,9.988617
2018-12-13,04:28:09.852,0.31364440000000005,0.011962891000000002,9.991013
2018-12-13,04:28:09.854,0.32322693,-0.02154541,10.005386
2018-12-13,04:28:09.855,0.3327942,-0.06465149,9.993408
2018-12-13,04:28:09.857,0.33039856,-0.05506897,10.010162
2018-12-13,04:28:09.934,0.3495636,-0.02154541,10.031723
2018-12-13,04:28:09.936,0.32562256,-0.014373779,9.967072
2018-12-13,04:28:09.937,0.3040619,0.0287323,9.950317
2018-12-13,04:28:09.938,0.28251648,0.06703186,9.907211
2018-12-13,04:28:09.938,0.27055359999999995,0.06942749,9.880875
2018-12-13,04:28:09.939,0.28491209999999995,0.05986023,9.8090515
2018-12-13,04:28:09.940,0.292099,0.0574646,9.782715
2018-12-13,04:28:09.941,0.292099,0.07661438,9.703705000000001
2018-12-13,04:28:09.943,0.30166626,0.09815979,9.672592
2018-12-13,04:28:10.024,0.30166626,0.04548645,9.629486
2018-12-13,04:28:10.027,0.28251648,0.07182312,9.581603999999999
2018-12-13,04:28:10.028,0.27772522,0.07182312,9.54808
2018-12-13,04:28:10.030,0.32322693,0.12928772,9.603149
2018-12-13,04:28:10.032,0.28970337,0.06942749,9.607941
2018-12-13,04:28:10.034,0.33998108,0.08380127,9.550476
2018-12-13,04:28:10.036,0.32562256,0.13647461,9.48584
2018-12-13,04:28:10.038,0.33039856,0.03112793,9.454711999999999
2018-12-13,04:28:10.039,0.3040619,0.03829956,9.425980000000001
2018-12-13,04:28:10.114,0.26097107,-0.0047912598,9.538513
2018-12-13,04:28:10.117,0.21788025,-0.0287323,9.598358000000001
2018-12-13,04:28:10.118,0.19393921,-0.06704712,9.756378
2018-12-13,04:28:10.120,0.22027588,-0.1149292,9.878494
2018-12-13,04:28:10.121,0.24661255,-0.10534668,9.957489
2018-12-13,04:28:10.123,0.31843567,-0.1149292,9.969467
2018-12-13,04:28:10.124,0.27772522,-0.09338379,9.873702999999999
2018-12-13,04:28:10.126,0.25857544,-0.08619689999999999,9.751586999999999
2018-12-13,04:28:10.127,0.28970337,0.0023956299,9.648636
2018-12-13,04:28:10.205,0.2753296,-0.03352356,9.531326
2018-12-13,04:28:10.207,0.25857544,0.04309082,9.531326
2018-12-13,04:28:10.209,0.23703003,-0.08859253,9.584
2018-12-13,04:28:10.211,0.23703003,-0.07182312,9.782715
2018-12-13,04:28:10.213,0.26815796,-0.07421875,10.014954
2018-12-13,04:28:10.215,0.29689026,-0.11970519999999998,10.079605
2018-12-13,04:28:10.216,0.24182129,-0.10534668,10.129883
2018-12-13,04:28:10.218,0.28251648,-0.13168335,10.053268
2018-12-13,04:28:10.220,0.36871338,-0.01675415,9.823425
2018-12-13,04:28:10.300,0.3615265,-0.02633667,9.646255499999999
2018-12-13,04:28:10.303,0.4189911,0.0071868895999999995,9.516967999999999
2018-12-13,04:28:10.304,0.42617798,0.0071868895999999995,9.500198
2018-12-13,04:28:10.306,0.39265442,-0.04548645,9.607941
2018-12-13,04:28:10.308,0.44772340000000005,-0.01914978,9.737228
2018-12-13,04:28:10.309,0.41659546,-0.10774231,9.904816
2018-12-13,04:28:10.311,0.38786316,-0.08859253,9.890457000000001
2018-12-13,04:28:10.313,0.36631775,-0.08140564,9.950317
2018-12-13,04:28:10.315,0.33758545,-0.05986023,9.856933999999999
2018-12-13,04:28:10.386,0.27055359999999995,0.0047912598,9.806656
2018-12-13,04:28:10.388,0.29928590000000005,0.0287323,9.689346
2018-12-13,04:28:10.390,0.31364440000000005,0.06463623,9.641464
2018-12-13,04:28:10.392,0.3327942,0.08140564,9.639069000000001
2018-12-13,04:28:10.396,0.30166626,0.0287323,9.718079
2018-12-13,04:28:10.398,0.31604004,0.0023956299,9.732437
2018-12-13,04:28:10.399,0.27294922,0.014358520500000001,9.852158
2018-12-13,04:28:10.400,0.24661255,0.01675415,9.938339
2018-12-13,04:28:10.402,0.21788025,0.011962891000000002,9.880875
2018-12-13,04:28:10.477,0.21308899,0.0287323,9.849762
2018-12-13,04:28:10.479,0.24661255,0.11730957,9.734833
2018-12-13,04:28:10.482,0.26097107,0.08140564,9.591187
2018-12-13,04:28:10.483,0.24661255,0.03112793,9.598358000000001
2018-12-13,04:28:10.484,0.24421692,0.06224059999999999,9.686950999999999
2018-12-13,04:28:10.485,0.2633667,0.03352356,9.758774
2018-12-13,04:28:10.485,0.22984314,0.0,9.756378
2018-12-13,04:28:10.486,0.25857544,-0.06465149,9.842575
2018-12-13,04:28:10.487,0.2753296,-0.02633667,9.892853
2018-12-13,04:28:10.568,0.23703003,-0.0095825195,9.830597000000001
2018-12-13,04:28:10.570,0.24421692,-0.0023956299,9.753983
2018-12-13,04:28:10.572,0.20111084,0.009567261,9.732437
2018-12-13,04:28:10.576,0.26097107,0.06224059999999999,9.670197
2018-12-13,04:28:10.578,0.25617979999999996,0.0287323,9.629486
2018-12-13,04:28:10.580,0.24661255,-0.01914978,9.646255499999999
2018-12-13,04:28:10.582,0.28251648,-0.02394104,9.686950999999999
2018-12-13,04:28:10.583,0.25857544,0.0047912598,9.761169
2018-12-13,04:28:10.584,0.24421692,-0.02394104,9.856933999999999
2018-12-13,04:28:10.657,0.21788025,0.0071868895999999995,9.8641205
2018-12-13,04:28:10.659,0.24900818,0.03590393,9.780319
2018-12-13,04:28:10.660,0.25138855,0.01675415,9.679764
2018-12-13,04:28:10.662,0.29689026,0.01914978,9.538513
2018-12-13,04:28:10.664,0.29928590000000005,0.08380127,9.390075999999999
2018-12-13,04:28:10.665,0.3040619,0.05506897,9.402039
2018-12-13,04:28:10.666,0.28491209999999995,0.04548645,9.430771
2018-12-13,04:28:10.668,0.27772522,0.04309082,9.449921
2018-12-13,04:28:10.669,0.22505188,-0.05267334,9.595978
2018-12-13,04:28:10.748,0.2346344,-0.0287323,9.718079
2018-12-13,04:28:10.750,0.21069336,-0.04788208,9.792297
2018-12-13,04:28:10.752,0.21308899,-0.05506897,9.880875
2018-12-13,04:28:10.754,0.26097107,-0.01914978,9.943130499999999
2018-12-13,04:28:10.755,0.24661255,-0.01914978,9.866516
2018-12-13,04:28:10.757,0.29449463,-0.04071045,9.753983
2018-12-13,04:28:10.758,0.27055359999999995,-0.0095825195,9.713287
2018-12-13,04:28:10.760,0.24421692,-0.06942749,9.710892
2018-12-13,04:28:10.761,0.23942566,-0.0071868895999999995,9.775542999999999
2018-12-13,04:28:10.838,0.19154358,-0.10534668,9.840179
2018-12-13,04:28:10.840,0.21548462,-0.11253357,9.895247999999999
2018-12-13,04:28:10.842,0.19393921,-0.14126587,10.038895
2018-12-13,04:28:10.843,0.18914795,-0.08859253,10.084381
2018-12-13,04:28:10.845,0.18196106,-0.08140564,10.110717999999999
2018-12-13,04:28:10.846,0.20829773,-0.07661438,10.031723
2018-12-13,04:28:10.848,0.22505188,-0.01675415,9.914398
2018-12-13,04:28:10.849,0.29928590000000005,0.014358520500000001,9.868912
2018-12-13,04:28:10.850,0.2633667,-0.07901001,9.761169
2018-12-13,04:28:10.929,0.24421692,-0.11253357,9.74202
2018-12-13,04:28:10.931,0.24661255,-0.04071045,9.806656
2018-12-13,04:28:10.933,0.2633667,-0.0023956299,9.904816
2018-12-13,04:28:10.935,0.23703003,-0.04788208,9.971863
2018-12-13,04:28:10.936,0.29449463,-0.0047912598,9.919189
2018-12-13,04:28:10.938,0.31364440000000005,-0.04548645,9.816238
2018-12-13,04:28:10.939,0.30885315,0.0047912598,9.72525
2018-12-13,04:28:10.941,0.34716797,-0.02154541,9.648636
2018-12-13,04:28:10.942,0.32800293,0.04548645,9.591187
2018-12-13,04:28:11.019,0.31124878,0.0047912598,9.586395
2018-12-13,04:28:11.021,0.33039856,-0.03112793,9.543304
2018-12-13,04:28:11.023,0.31843567,0.0047912598,9.658218
2018-12-13,04:28:11.025,0.32562256,-0.014373779,9.670197
2018-12-13,04:28:11.027,0.28730774,0.0,9.756378
2018-12-13,04:28:11.028,0.20350647,-0.0287323,9.777924
2018-12-13,04:28:11.030,0.22505188,-0.02394104,9.691742
2018-12-13,04:28:11.032,0.28970337,-0.0287323,9.72287
2018-12-13,04:28:11.034,0.33039856,0.014358520500000001,9.658218
2018-12-13,04:28:11.109,0.31364440000000005,0.02154541,9.64386
2018-12-13,04:28:11.111,0.32562256,0.02633667,9.634277
2018-12-13,04:28:11.113,0.30645752,-0.0095825195,9.64386
2018-12-13,04:28:11.115,0.29928590000000005,-0.04548645,9.619919
2018-12-13,04:28:11.117,0.2753296,-0.0023956299,9.768355999999999
2018-12-13,04:28:11.118,0.26576233,-0.0095825195,9.837784
2018-12-13,04:28:11.120,0.29928590000000005,-0.0047912598,9.873702999999999
2018-12-13,04:28:11.121,0.26576233,0.01914978,9.806656
2018-12-13,04:28:11.123,0.34716797,0.02633667,9.624695
2018-12-13,04:28:11.199,0.31124878,0.014358520500000001,9.536118
2018-12-13,04:28:11.201,0.34716797,0.03352356,9.452316
2018-12-13,04:28:11.203,0.32800293,0.10295105,9.509781
2018-12-13,04:28:11.204,0.27772522,0.01675415,9.598358000000001
2018-12-13,04:28:11.205,0.28251648,0.01914978,9.679764
2018-12-13,04:28:11.207,0.34237670000000003,0.011962891000000002,9.710892
2018-12-13,04:28:11.208,0.30645752,-0.0047912598,9.80188
2018-12-13,04:28:11.210,0.25617979999999996,-0.02394104,9.8641205
2018-12-13,04:28:11.211,0.29449463,-0.02394104,9.885666
2018-12-13,04:28:11.290,0.27294922,-0.02394104,9.900039999999999
2018-12-13,04:28:11.293,0.27055359999999995,-0.02633667,9.935944000000001
2018-12-13,04:28:11.296,0.28970337,-0.03591919,9.849762
2018-12-13,04:28:11.298,0.33518982,-0.014373779,9.749207
2018-12-13,04:28:11.300,0.3040619,-0.0023956299,9.737228
2018-12-13,04:28:11.302,0.3208313,0.03112793,9.749207
2018-12-13,04:28:11.303,0.33518982,0.03590393,9.792297
2018-12-13,04:28:11.305,0.2633667,0.0287323,9.82103
2018-12-13,04:28:11.306,0.27772522,0.04548645,9.871307
2018-12-13,04:28:11.382,0.27772522,0.01914978,9.804260000000001
2018-12-13,04:28:11.384,0.25617979999999996,0.0023956299,9.773147999999999
2018-12-13,04:28:11.386,0.22267151,0.01675415,9.732437
2018-12-13,04:28:11.388,0.24421692,0.014358520500000001,9.7061
2018-12-13,04:28:11.389,0.26576233,0.03112793,9.701309
2018-12-13,04:28:11.391,0.25138855,-0.0071868895999999995,9.758774
2018-12-13,04:28:11.394,0.28970337,-0.014373779,9.708496
2018-12-13,04:28:11.397,0.26815796,-0.0023956299,9.732437
2018-12-13,04:28:11.399,0.21788025,0.04309082,9.689346
2018-12-13,04:28:11.472,0.23223877,0.009567261,9.730041499999999
2018-12-13,04:28:11.474,0.27055359999999995,0.014358520500000001,9.732437
2018-12-13,04:28:11.476,0.27294922,-0.02154541,9.746811
2018-12-13,04:28:11.478,0.25138855,-0.0071868895999999995,9.782715
2018-12-13,04:28:11.480,0.27772522,0.0287323,9.64386
2018-12-13,04:28:11.481,0.25138855,-0.03591919,9.746811
2018-12-13,04:28:11.483,0.27055359999999995,-0.014373779,9.730041499999999
2018-12-13,04:28:11.484,0.25617979999999996,0.011962891000000002,9.718079
2018-12-13,04:28:11.485,0.33039856,0.011962891000000002,9.7061
2018-12-13,04:28:11.562,0.33518982,0.01675415,9.751586999999999
2018-12-13,04:28:11.564,0.31604004,0.0047912598,9.785110000000001
2018-12-13,04:28:11.566,0.28491209999999995,-0.011978148999999999,9.749207
2018-12-13,04:28:11.567,0.27055359999999995,0.011962891000000002,9.739624000000001
2018-12-13,04:28:11.569,0.27772522,-0.0071868895999999995,9.710892
2018-12-13,04:28:11.570,0.22984314,-0.014373779,9.674973
2018-12-13,04:28:11.572,0.29449463,-0.02394104,9.66301
2018-12-13,04:28:11.574,0.2633667,-0.05027771,9.658218
2018-12-13,04:28:11.576,0.28491209999999995,0.05027771,9.672592
2018-12-13,04:28:11.652,0.3327942,0.02394104,9.677368
2018-12-13,04:28:11.655,0.32562256,0.0,9.701309
2018-12-13,04:28:11.657,0.32562256,0.01914978,9.710892
2018-12-13,04:28:11.658,0.35673523,-0.04309082,9.715683
2018-12-13,04:28:11.660,0.31124878,-0.0095825195,9.785110000000001
2018-12-13,04:28:11.662,0.37590027,0.0023956299,9.8641205
2018-12-13,04:28:11.664,0.37590027,-0.06225586,9.890457000000001
2018-12-13,04:28:11.665,0.39025879999999996,0.02633667,9.804260000000001
2018-12-13,04:28:11.667,0.371109,-0.011978148999999999,9.847366000000001
2018-12-13,04:28:11.742,0.34237670000000003,0.0071868895999999995,9.785110000000001
2018-12-13,04:28:11.744,0.371109,0.0071868895999999995,9.804260000000001
2018-12-13,04:28:11.745,0.3327942,-0.0047912598,9.751586999999999
2018-12-13,04:28:11.746,0.3040619,0.06703186,9.773147999999999
2018-12-13,04:28:11.746,0.32800293,0.011962891000000002,9.744415
2018-12-13,04:28:11.747,0.31604004,-0.0023956299,9.787506
2018-12-13,04:28:11.748,0.30166626,0.014358520500000001,9.8641205
2018-12-13,04:28:11.749,0.34237670000000003,-0.04309082,9.856933999999999
2018-12-13,04:28:11.750,0.31364440000000005,-0.05506897,9.955109
2018-12-13,04:28:11.833,0.24421692,-0.04071045,9.916794
2018-12-13,04:28:11.836,0.24182129,0.0,9.837784
2018-12-13,04:28:11.839,0.31843567,0.08380127,9.72287
2018-12-13,04:28:11.840,0.25138855,0.07421875,9.622314
2018-12-13,04:28:11.842,0.24421692,0.12689209,9.588791
2018-12-13,04:28:11.843,0.25138855,0.10055542,9.5720215
2018-12-13,04:28:11.845,0.24900818,0.02154541,9.682159
2018-12-13,04:28:11.846,0.27055359999999995,0.0574646,9.732437
2018-12-13,04:28:11.847,0.292099,0.0,9.777924
2018-12-13,04:28:11.923,0.292099,0.01675415,9.840179
2018-12-13,04:28:11.924,0.31364440000000005,-0.04309082,9.844971000000001
2018-12-13,04:28:11.925,0.27055359999999995,-0.06704712,9.856933999999999
2018-12-13,04:28:11.926,0.27294922,-0.04548645,9.840179
2018-12-13,04:28:11.927,0.31843567,-0.014373779,9.773147999999999
2018-12-13,04:28:11.927,0.28012085,0.009567261,9.744415
2018-12-13,04:28:11.928,0.27772522,0.04069519,9.744415
2018-12-13,04:28:11.929,0.292099,0.05986023,9.670197
2018-12-13,04:28:11.929,0.3208313,0.01675415,9.670197
2018-12-13,04:28:12.014,0.28970337,0.05986023,9.701309
2018-12-13,04:28:12.017,0.34477234,0.05986023,9.7061
2018-12-13,04:28:12.019,0.3040619,-0.0287323,9.753983
2018-12-13,04:28:12.020,0.31124878,0.0,9.727646
2018-12-13,04:28:12.022,0.33518982,-0.03352356,9.753983
2018-12-13,04:28:12.024,0.34716797,-0.03352356,9.832993
2018-12-13,04:28:12.025,0.31364440000000005,-0.0071868895999999995,9.832993
2018-12-13,04:28:12.026,0.3040619,-0.0071868895999999995,9.825821000000001
2018-12-13,04:28:12.028,0.24900818,0.0,9.789902
2018-12-13,04:28:12.108,0.25138855,-0.0023956299,9.708496
2018-12-13,04:28:12.110,0.28251648,0.05027771,9.710892
2018-12-13,04:28:12.112,0.3327942,0.03829956,9.670197
2018-12-13,04:28:12.116,0.2753296,0.05267334,9.612732000000001
2018-12-13,04:28:12.119,0.28012085,0.02394104,9.634277
2018-12-13,04:28:12.121,0.2346344,0.01675415,9.672592
2018-12-13,04:28:12.123,0.28251648,0.009567261,9.713287
2018-12-13,04:28:12.123,0.27055359999999995,0.01914978,9.715683
2018-12-13,04:28:12.124,0.28491209999999995,-0.0023956299,9.780319
2018-12-13,04:28:12.194,0.24661255,-0.05027771,9.8090515
2018-12-13,04:28:12.197,0.18914795,-0.05267334,9.797089
2018-12-13,04:28:12.199,0.20111084,-0.05027771,9.830597000000001
2018-12-13,04:28:12.201,0.23223877,-0.0095825195,9.789902
2018-12-13,04:28:12.203,0.22744751,0.011962891000000002,9.672592
2018-12-13,04:28:12.205,0.19871521,0.07661438,9.648636
2018-12-13,04:28:12.207,0.22267151,0.04548645,9.639069000000001
2018-12-13,04:28:12.208,0.29449463,0.01675415,9.5720215
2018-12-13,04:28:12.209,0.30166626,0.04788208,9.619919
2018-12-13,04:28:12.289,0.24900818,0.0071868895999999995,9.636673
2018-12-13,04:28:12.300,0.24900818,-0.0095825195,9.648636
2018-12-13,04:28:12.302,0.2346344,-0.06225586,9.708496
2018-12-13,04:28:12.304,0.21788025,-0.01675415,9.653427
2018-12-13,04:28:12.305,0.22505188,-0.01914978,9.739624000000001
2018-12-13,04:28:12.306,0.22984314,-0.06704712,9.751586999999999
2018-12-13,04:28:12.306,0.24900818,-0.07901001,9.813842999999999
2018-12-13,04:28:12.307,0.28491209999999995,-0.04309082,9.818634
2018-12-13,04:28:12.308,0.30166626,-0.07182312,9.868912
2018-12-13,04:28:12.379,0.30645752,-0.09098816,9.868912
2018-12-13,04:28:12.380,0.31364440000000005,-0.01914978,9.799484
2018-12-13,04:28:12.380,0.3615265,0.014358520500000001,9.698929
2018-12-13,04:28:12.381,0.38067627,0.011962891000000002,9.607941
2018-12-13,04:28:12.382,0.34716797,0.0047912598,9.641464
2018-12-13,04:28:12.382,0.30645752,-0.04548645,9.82103
2018-12-13,04:28:12.383,0.24661255,-0.0095825195,9.933548
2018-12-13,04:28:12.383,0.26097107,-0.03352356,9.986221
2018-12-13,04:28:12.384,0.30645752,-0.07182312,9.96228
2018-12-13,04:28:12.465,0.292099,0.01675415,9.80188
2018-12-13,04:28:12.467,0.28970337,0.08618164,9.667800999999999
2018-12-13,04:28:12.469,0.25378418,0.03352356,9.610336
2018-12-13,04:28:12.470,0.28251648,0.03590393,9.610336
2018-12-13,04:28:12.472,0.28730774,0.011962891000000002,9.634277
2018-12-13,04:28:12.474,0.31843567,-0.0287323,9.72525
2018-12-13,04:28:12.476,0.31364440000000005,-0.05267334,9.818634
2018-12-13,04:28:12.478,0.28970337,-0.06465149,9.830597000000001
2018-12-13,04:28:12.479,0.32562256,-0.04788208,9.8641205
2018-12-13,04:28:12.555,0.32562256,-0.06225586,9.890457000000001
2018-12-13,04:28:12.556,0.31364440000000005,-0.03352356,9.811447
2018-12-13,04:28:12.556,0.30166626,0.011962891000000002,9.765961
2018-12-13,04:28:12.557,0.33998108,0.0287323,9.665405
2018-12-13,04:28:12.557,0.38067627,0.0287323,9.536118
2018-12-13,04:28:12.558,0.31843567,0.04548645,9.46669
2018-12-13,04:28:12.558,0.31604004,0.05027771,9.533722000000001
2018-12-13,04:28:12.559,0.31364440000000005,0.011962891000000002,9.555267
2018-12-13,04:28:12.559,0.292099,-0.06704712,9.646255499999999
2018-12-13,04:28:12.647,0.23703003,0.0071868895999999995,9.718079
2018-12-13,04:28:12.649,0.24661255,-0.06942749,9.727646
2018-12-13,04:28:12.651,0.26576233,-0.05506897,9.72525
2018-12-13,04:28:12.652,0.29449463,-0.0574646,9.720474000000001
2018-12-13,04:28:12.654,0.31364440000000005,-0.0287323,9.696533
2018-12-13,04:28:12.656,0.3208313,-0.07182312,9.686950999999999
2018-12-13,04:28:12.658,0.36871338,-0.01675415,9.672592
2018-12-13,04:28:12.659,0.33998108,-0.0574646,9.7061
2018-12-13,04:28:12.661,0.32562256,-0.04788208,9.718079
2018-12-13,04:28:12.739,0.33518982,-0.05027771,9.732437
2018-12-13,04:28:12.742,0.31843567,-0.07661438,9.694138
2018-12-13,04:28:12.743,0.3327942,-0.11013794,9.746811
2018-12-13,04:28:12.745,0.32322693,-0.04788208,9.787506
2018-12-13,04:28:12.747,0.3543396,-0.07901001,9.813842999999999
2018-12-13,04:28:12.748,0.29689026,-0.09338379,9.842575
2018-12-13,04:28:12.750,0.33518982,-0.014373779,9.82103
2018-12-13,04:28:12.751,0.35194397,-0.09576416,9.785110000000001
2018-12-13,04:28:12.754,0.37350464,-0.03591919,9.751586999999999
2018-12-13,04:28:12.827,0.38546753,-0.11253357,9.80188
2018-12-13,04:28:12.830,0.37590027,-0.08380127,9.849762
2018-12-13,04:28:12.832,0.3830719,-0.07421875,9.897644
2018-12-13,04:28:12.834,0.36392212,-0.0574646,9.907211
2018-12-13,04:28:12.837,0.35913086,-0.05267334,9.818634
2018-12-13,04:28:12.839,0.35913086,0.03112793,9.739624000000001
2018-12-13,04:28:12.840,0.3998413,0.0,9.672592
2018-12-13,04:28:12.842,0.40701294,0.0047912598,9.696533
2018-12-13,04:28:12.843,0.36392212,-0.014373779,9.749207
2018-12-13,04:28:12.917,0.3998413,-0.03352356,9.830597000000001
2018-12-13,04:28:12.919,0.35673523,-0.04788208,9.811447
2018-12-13,04:28:12.921,0.3495636,-0.06942749,9.866516
2018-12-13,04:28:12.923,0.37828064,-0.10534668,9.859328999999999
2018-12-13,04:28:12.924,0.4285736,-0.0574646,9.840179
2018-12-13,04:28:12.925,0.41659546,-0.04788208,9.840179
2018-12-13,04:28:12.927,0.41419983,-0.08859253,9.756378
2018-12-13,04:28:12.928,0.37350464,-0.06225586,9.72287
2018-12-13,04:28:12.930,0.3495636,-0.05027771,9.703705000000001
2018-12-13,04:28:13.008,0.34237670000000003,-0.0287323,9.684555
2018-12-13,04:28:13.011,0.3327942,-0.01914978,9.708496
2018-12-13,04:28:13.012,0.28970337,-0.0574646,9.7061
2018-12-13,04:28:13.014,0.28491209999999995,-0.06942749,9.727646
2018-12-13,04:28:13.016,0.29928590000000005,-0.08859253,9.703705000000001
2018-12-13,04:28:13.017,0.25378418,-0.09815979,9.74202
2018-12-13,04:28:13.019,0.32322693,-0.04788208,9.732437
2018-12-13,04:28:13.020,0.29689026,-0.06704712,9.739624000000001
2018-12-13,04:28:13.022,0.2753296,-0.05027771,9.763565
2018-12-13,04:28:13.098,0.25617979999999996,-0.06942749,9.758774
2018-12-13,04:28:13.100,0.292099,-0.13168335,9.730041499999999
2018-12-13,04:28:13.103,0.28970337,-0.03831482,9.780319
2018-12-13,04:28:13.105,0.3327942,-0.01914978,9.782715
2018-12-13,04:28:13.106,0.3327942,-0.04788208,9.756378
2018-12-13,04:28:13.108,0.3495636,-0.08859253,9.768355999999999
2018-12-13,04:28:13.110,0.3327942,-0.08619689999999999,9.739624000000001
2018-12-13,04:28:13.112,0.35194397,-0.04548645,9.718079
2018-12-13,04:28:13.114,0.34237670000000003,-0.05267334,9.715683
2018-12-13,04:28:13.193,0.3615265,-0.011978148999999999,9.691742
2018-12-13,04:28:13.196,0.39025879999999996,-0.0047912598,9.660614
2018-12-13,04:28:13.198,0.39505005,0.0071868895999999995,9.739624000000001
2018-12-13,04:28:13.199,0.38786316,-0.04071045,9.770752
2018-12-13,04:28:13.201,0.39265442,-0.05027771,9.782715
2018-12-13,04:28:13.203,0.35673523,-0.05027771,9.768355999999999
2018-12-13,04:28:13.205,0.39025879999999996,-0.0574646,9.708496
2018-12-13,04:28:13.206,0.39505005,-0.0287323,9.710892
2018-12-13,04:28:13.208,0.41419983,0.01675415,9.686950999999999
2018-12-13,04:28:13.279,0.41659546,-0.02394104,9.708496
2018-12-13,04:28:13.281,0.35673523,-0.03831482,9.718079
2018-12-13,04:28:13.283,0.32562256,-0.06465149,9.768355999999999
2018-12-13,04:28:13.284,0.3208313,-0.02633667,9.8090515
2018-12-13,04:28:13.286,0.34477234,-0.10534668,9.789902
2018-12-13,04:28:13.287,0.28491209999999995,-0.08140564,9.792297
2018-12-13,04:28:13.289,0.30885315,-0.11253357,9.844971000000001
2018-12-13,04:28:13.290,0.33518982,-0.12689209,9.856933999999999
2018-12-13,04:28:13.292,0.34477234,-0.11013794,9.823425
2018-12-13,04:28:13.370,0.3040619,-0.07421875,9.751586999999999
2018-12-13,04:28:13.373,0.2753296,-0.02633667,9.710892
2018-12-13,04:28:13.375,0.26815796,-0.06704712,9.665405
2018-12-13,04:28:13.377,0.22027588,-0.0574646,9.749207
2018-12-13,04:28:13.379,0.25138855,-0.1149292,9.789902
2018-12-13,04:28:13.380,0.25857544,-0.06942749,9.746811
2018-12-13,04:28:13.382,0.23223877,-0.09338379,9.713287
2018-12-13,04:28:13.383,0.22267151,-0.04548645,9.686950999999999
2018-12-13,04:28:13.385,0.16041565,-0.03591919,9.660614
2018-12-13,04:28:13.461,0.12689209,-0.05267334,9.622314
2018-12-13,04:28:13.463,0.18196106,-0.03591919,9.679764
2018-12-13,04:28:13.465,0.20111084,0.009567261,9.660614
2018-12-13,04:28:13.466,0.23223877,-0.01675415,9.627089999999999
2018-12-13,04:28:13.468,0.27055359999999995,-0.0287323,9.562453999999999
2018-12-13,04:28:13.469,0.3208313,-0.04071045,9.605545
2018-12-13,04:28:13.471,0.32800293,-0.09815979,9.631882000000001
2018-12-13,04:28:13.473,0.34237670000000003,-0.06942749,9.718079
2018-12-13,04:28:13.476,0.31604004,-0.1149292,9.830597000000001
2018-12-13,04:28:13.552,0.32322693,-0.10534668,9.876099
2018-12-13,04:28:13.555,0.28970337,-0.15562439,9.964675999999999
2018-12-13,04:28:13.557,0.31364440000000005,-0.06704712,9.916794
2018-12-13,04:28:13.559,0.29928590000000005,-0.07901001,9.876099
2018-12-13,04:28:13.560,0.31843567,-0.06704712,9.797089
2018-12-13,04:28:13.562,0.28251648,-0.05267334,9.785110000000001
2018-12-13,04:28:13.563,0.31364440000000005,-0.03591919,9.8090515
2018-12-13,04:28:13.565,0.31364440000000005,-0.04788208,9.770752
2018-12-13,04:28:13.566,0.30885315,-0.06465149,9.797089
2018-12-13,04:28:13.642,0.28970337,-0.04548645,9.852158
2018-12-13,04:28:13.644,0.29928590000000005,-0.04788208,9.830597000000001
2018-12-13,04:28:13.646,0.34237670000000003,-0.03352356,9.813842999999999
2018-12-13,04:28:13.647,0.31124878,0.014358520500000001,9.758774
2018-12-13,04:28:13.649,0.292099,-0.01675415,9.686950999999999
2018-12-13,04:28:13.650,0.3327942,-0.0071868895999999995,9.691742
2018-12-13,04:28:13.652,0.34716797,-0.02633667,9.672592
2018-12-13,04:28:13.654,0.33039856,-0.06704712,9.691742
2018-12-13,04:28:13.655,0.28970337,-0.08859253,9.811447
2018-12-13,04:28:13.732,0.2633667,-0.06704712,9.892853
2018-12-13,04:28:13.735,0.22027588,-0.06225586,9.926376
2018-12-13,04:28:13.737,0.20590210000000003,-0.0574646,9.844971000000001
2018-12-13,04:28:13.739,0.24182129,0.014358520500000001,9.696533
2018-12-13,04:28:13.740,0.19154358,0.03112793,9.586395
2018-12-13,04:28:13.743,0.19154358,-0.014373779,9.536118
2018-12-13,04:28:13.744,0.16760254,-0.02394104,9.507385000000001
2018-12-13,04:28:13.746,0.17239379999999999,-0.03831482,9.612732000000001
2018-12-13,04:28:13.747,0.15083313,-0.08140564,9.7061
2018-12-13,04:28:13.825,0.1484375,-0.07661438,9.82103
2018-12-13,04:28:13.827,0.15083313,-0.09815979,9.919189
2018-12-13,04:28:13.829,0.15562439,-0.09815979,9.935944000000001
2018-12-13,04:28:13.831,0.19154358,-0.01914978,9.823425
2018-12-13,04:28:13.833,0.13407898,-0.03831482,9.660614
2018-12-13,04:28:13.835,0.14126587,-0.02394104,9.588791
2018-12-13,04:28:13.837,0.19871521,-0.0047912598,9.576813000000001
2018-12-13,04:28:13.839,0.2346344,-0.011978148999999999,9.64386
2018-12-13,04:28:13.841,0.22984314,-0.06942749,9.674973
2018-12-13,04:28:13.913,0.22027588,-0.04548645,9.859328999999999
2018-12-13,04:28:13.916,0.21069336,-0.07661438,9.933548
2018-12-13,04:28:13.918,0.22984314,-0.08619689999999999,10.019745
2018-12-13,04:28:13.920,0.21548462,-0.07901001,9.96228
2018-12-13,04:28:13.921,0.20350647,-0.07901001,9.866516
2018-12-13,04:28:13.923,0.19633484,-0.05027771,9.813842999999999
2018-12-13,04:28:13.924,0.24182129,-0.014373779,9.667800999999999
2018-12-13,04:28:13.925,0.25617979999999996,-0.011978148999999999,9.588791
2018-12-13,04:28:13.927,0.22505188,0.03829956,9.600754
2018-12-13,04:28:14.003,0.24900818,-0.014373779,9.665405
2018-12-13,04:28:14.005,0.19871521,0.0,9.72525
2018-12-13,04:28:14.007,0.22744751,-0.03112793,9.789902
2018-12-13,04:28:14.009,0.22744751,-0.02394104,9.813842999999999
2018-12-13,04:28:14.010,0.18675232,-0.08140564,9.842575
2018-12-13,04:28:14.012,0.21069336,-0.04309082,9.789902
2018-12-13,04:28:14.014,0.22505188,-0.07661438,9.811447
2018-12-13,04:28:14.015,0.18675232,-0.05986023,9.787506
2018-12-13,04:28:14.017,0.23223877,-0.09098816,9.830597000000001
2018-12-13,04:28:14.093,0.22744751,-0.05986023,9.797089
2018-12-13,04:28:14.095,0.17956543,-0.1149292,9.782715
2018-12-13,04:28:14.096,0.20590210000000003,-0.0071868895999999995,9.751586999999999
2018-12-13,04:28:14.097,0.18675232,-0.0574646,9.737228
2018-12-13,04:28:14.098,0.18435669,-0.0023956299,9.670197
2018-12-13,04:28:14.099,0.15322876,-0.04788208,9.708496
2018-12-13,04:28:14.100,0.16041565,0.009567261,9.734833
2018-12-13,04:28:14.101,0.16760254,0.04548645,9.758774
2018-12-13,04:28:14.102,0.16041565,0.03352356,9.665405
2018-12-13,04:28:14.183,0.17477417,0.02154541,9.660614
2018-12-13,04:28:14.185,0.21548462,0.10055542,9.588791
2018-12-13,04:28:14.186,0.18196106,0.0047912598,9.557663
2018-12-13,04:28:14.188,0.24421692,-0.03591919,9.612732000000001
2018-12-13,04:28:14.189,0.23942566,-0.0574646,9.672592
2018-12-13,04:28:14.191,0.23223877,-0.06225586,9.686950999999999
2018-12-13,04:28:14.193,0.2346344,-0.06942749,9.756378
2018-12-13,04:28:14.195,0.16520691,-0.0023956299,9.696533
2018-12-13,04:28:14.197,0.16760254,0.02633667,9.631882000000001
2018-12-13,04:28:14.273,0.15322876,0.009567261,9.648636
2018-12-13,04:28:14.275,0.18435669,-0.014373779,9.560058999999999
2018-12-13,04:28:14.276,0.13887024,0.0,9.610336
2018-12-13,04:28:14.277,0.11972046,-0.04548645,9.698929
2018-12-13,04:28:14.278,0.10534668,-0.02633667,9.8090515
2018-12-13,04:28:14.278,0.09098816,-0.04071045,9.861725
2018-12-13,04:28:14.279,0.07182312,-0.03591919,9.935944000000001
2018-12-13,04:28:14.280,0.09338379,0.01675415,9.866516
2018-12-13,04:28:14.280,0.12210083,0.0287323,9.720474000000001
2018-12-13,04:28:14.365,0.17239379999999999,0.04788208,9.648636
2018-12-13,04:28:14.367,0.19871521,0.09815979,9.581603999999999
2018-12-13,04:28:14.368,0.17477417,0.07182312,9.5672455
2018-12-13,04:28:14.370,0.21548462,0.10534668,9.660614
2018-12-13,04:28:14.371,0.16041565,0.03352356,9.773147999999999
2018-12-13,04:28:14.374,0.18196106,0.01675415,9.880875
2018-12-13,04:28:14.376,0.10774231,-0.03591919,9.967072
2018-12-13,04:28:14.377,0.19633484,-0.05986023,10.072417999999999
2018-12-13,04:28:14.379,0.13407898,-0.01914978,10.065230999999999
2018-12-13,04:28:14.455,0.1484375,-0.0095825195,9.971863
2018-12-13,04:28:14.457,0.18435669,-0.0095825195,9.859328999999999
2018-12-13,04:28:14.459,0.18675232,0.04309082,9.816238
2018-12-13,04:28:14.460,0.16041565,0.06224059999999999,9.749207
2018-12-13,04:28:14.462,0.18675232,0.0047912598,9.794692999999999
2018-12-13,04:28:14.463,0.19633484,0.07421875,9.8090515
2018-12-13,04:28:14.465,0.17956543,0.009567261,9.868912
2018-12-13,04:28:14.466,0.16520691,-0.0071868895999999995,9.880875
2018-12-13,04:28:14.468,0.16281128,-0.0023956299,9.8641205
2018-12-13,04:28:14.545,0.12210083,0.01914978,9.895247999999999
2018-12-13,04:28:14.547,0.16999817,0.0,9.828201
2018-12-13,04:28:14.549,0.18435669,0.05986023,9.739624000000001
2018-12-13,04:28:14.551,0.19154358,0.07901001,9.710892
2018-12-13,04:28:14.553,0.20111084,0.05267334,9.629486
2018-12-13,04:28:14.555,0.19154358,0.05267334,9.734833
2018-12-13,04:28:14.557,0.17239379999999999,0.0,9.837784
2018-12-13,04:28:14.559,0.1484375,0.03829956,9.938339
2018-12-13,04:28:14.561,0.17477417,-0.01675415,9.96228
2018-12-13,04:28:14.636,0.1484375,0.0023956299,9.830597000000001
2018-12-13,04:28:14.638,0.09098816,0.03352356,9.88327
2018-12-13,04:28:14.640,0.10534668,0.01675415,9.928772
2018-12-13,04:28:14.642,0.10534668,0.0023956299,9.959885
2018-12-13,04:28:14.643,0.15562439,0.0071868895999999995,9.912003
2018-12-13,04:28:14.645,0.12449646,0.009567261,9.758774
2018-12-13,04:28:14.647,0.20111084,0.05267334,9.552872
2018-12-13,04:28:14.648,0.15322876,0.09576416,9.500198
2018-12-13,04:28:14.649,0.11253357,0.08618164,9.631882000000001
2018-12-13,04:28:14.726,0.07661438,0.08380127,9.677368
2018-12-13,04:28:14.728,0.07901001,0.08857727,9.758774
2018-12-13,04:28:14.729,0.08619689999999999,0.0574646,9.732437
2018-12-13,04:28:14.731,0.0574646,0.16279602,9.631882000000001
2018-12-13,04:28:14.732,0.01676941,0.16998291,9.603149
2018-12-13,04:28:14.734,0.08619689999999999,0.14364624,9.557663
2018-12-13,04:28:14.735,0.03112793,0.16279602,9.615128
2018-12-13,04:28:14.737,0.03831482,0.06463623,9.619919
2018-12-13,04:28:14.739,0.0574646,0.06942749,9.72525
2018-12-13,04:28:14.817,0.03591919,0.11251831,9.789902
2018-12-13,04:28:14.819,0.07901001,0.11970519999999998,9.773147999999999
2018-12-13,04:28:14.821,0.09577942,0.09576416,9.7061
2018-12-13,04:28:14.823,0.08619689999999999,0.18435669,9.658218
2018-12-13,04:28:14.825,0.07901001,0.17237854,9.598358000000001
2018-12-13,04:28:14.827,0.11972046,0.12210083,9.624695
2018-12-13,04:28:14.828,0.09098816,0.14364624,9.682159
2018-12-13,04:28:14.830,0.13168335,0.11730957,9.689346
2018-12-13,04:28:14.831,0.11013794,0.12928772,9.799484
2018-12-13,04:28:14.907,0.12928772,0.11730957,9.777924
2018-12-13,04:28:14.909,0.11972046,0.14364624,9.797089
2018-12-13,04:28:14.911,0.12689209,0.14364624,9.777924
2018-12-13,04:28:14.913,0.18435669,0.12928772,9.756378
2018-12-13,04:28:14.915,0.1771698,0.11970519999999998,9.732437
2018-12-13,04:28:14.917,0.16999817,0.15322876,9.703705000000001
2018-12-13,04:28:14.918,0.13887024,0.15083313,9.653427
2018-12-13,04:28:14.920,0.12689209,0.14125061,9.72525
2018-12-13,04:28:14.921,0.15562439,0.15562439,9.811447
2018-12-13,04:28:14.997,0.12689209,0.07182312,9.876099
2018-12-13,04:28:15.000,0.1484375,0.10774231,9.885666
2018-12-13,04:28:15.002,0.15562439,0.06224059999999999,9.907211
2018-12-13,04:28:15.004,0.14605713,0.11491394,9.871307
2018-12-13,04:28:15.006,0.15083313,0.13407898,9.775542999999999
2018-12-13,04:28:15.007,0.20590210000000003,0.11970519999999998,9.66301
2018-12-13,04:28:15.009,0.19633484,0.15802002,9.605545
2018-12-13,04:28:15.010,0.20111084,0.12928772,9.584
2018-12-13,04:28:15.012,0.23703003,0.15083313,9.610336
2018-12-13,04:28:15.088,0.20111084,0.14364624,9.6510315
2018-12-13,04:28:15.090,0.15322876,0.15802002,9.691742
2018-12-13,04:28:15.091,0.15802002,0.09815979,9.713287
2018-12-13,04:28:15.093,0.16041565,0.08140564,9.787506
2018-12-13,04:28:15.095,0.14126587,0.10295105,9.80188
2018-12-13,04:28:15.096,0.18675232,0.13168335,9.777924
2018-12-13,04:28:15.098,0.19393921,0.14604187,9.727646
2018-12-13,04:28:15.100,0.2346344,0.16041565,9.655823
2018-12-13,04:28:15.101,0.22984314,0.10774231,9.646255499999999
2018-12-13,04:28:15.178,0.2346344,0.10774231,9.715683
2018-12-13,04:28:15.180,0.25138855,0.07421875,9.828201
2018-12-13,04:28:15.182,0.26097107,0.0071868895999999995,9.957489
2018-12-13,04:28:15.183,0.23223877,-0.0023956299,9.96228
2018-12-13,04:28:15.185,0.21069336,0.04788208,9.907211
2018-12-13,04:28:15.186,0.28730774,0.0574646,9.895247999999999
2018-12-13,04:28:15.188,0.22027588,0.11730957,9.72287
2018-12-13,04:28:15.189,0.28012085,0.17237854,9.624695
2018-12-13,04:28:15.190,0.27772522,0.18675232,9.579208
2018-12-13,04:28:15.269,0.28730774,0.13885498,9.54808
2018-12-13,04:28:15.271,0.29689026,0.12689209,9.579208
2018-12-13,04:28:15.273,0.28491209999999995,0.12449646,9.715683
2018-12-13,04:28:15.275,0.28012085,0.08857727,9.732437
2018-12-13,04:28:15.277,0.28012085,0.12449646,9.768355999999999
2018-12-13,04:28:15.279,0.24421692,0.05027771,9.811447
2018-12-13,04:28:15.281,0.21069336,0.06463623,9.837784
2018-12-13,04:28:15.282,0.20111084,0.08618164,9.789902
2018-12-13,04:28:15.284,0.18435669,0.07901001,9.890457000000001
2018-12-13,04:28:15.361,0.18435669,0.11730957,9.897644
2018-12-13,04:28:15.364,0.1484375,0.06942749,9.825821000000001
2018-12-13,04:28:15.365,0.16520691,0.05986023,9.797089
2018-12-13,04:28:15.367,0.21308899,0.08857727,9.72287
2018-12-13,04:28:15.368,0.26815796,0.08140564,9.703705000000001
2018-12-13,04:28:15.369,0.26815796,0.08857727,9.765961
2018-12-13,04:28:15.371,0.28012085,0.07421875,9.696533
2018-12-13,04:28:15.373,0.25378418,0.05986023,9.72287
2018-12-13,04:28:15.375,0.19633484,0.11251831,9.765961
2018-12-13,04:28:15.449,0.14126587,0.11730957,9.777924
2018-12-13,04:28:15.452,0.21548462,0.0909729,9.775542999999999
2018-12-13,04:28:15.455,0.17956543,0.07661438,9.782715
2018-12-13,04:28:15.457,0.18914795,0.06463623,9.768355999999999
2018-12-13,04:28:15.459,0.22267151,0.06703186,9.677368
2018-12-13,04:28:15.461,0.24421692,0.06224059999999999,9.694138
2018-12-13,04:28:15.462,0.22267151,0.07901001,9.732437
2018-12-13,04:28:15.463,0.25617979999999996,0.08857727,9.761169
2018-12-13,04:28:15.464,0.27055359999999995,0.09576416,9.739624000000001
2018-12-13,04:28:15.540,0.27055359999999995,0.06942749,9.744415
2018-12-13,04:28:15.542,0.27055359999999995,0.05027771,9.761169
2018-12-13,04:28:15.544,0.20350647,0.01914978,9.761169
2018-12-13,04:28:15.545,0.20829773,0.10534668,9.799484
2018-12-13,04:28:15.547,0.28012085,0.05267334,9.794692999999999
2018-12-13,04:28:15.548,0.29928590000000005,0.08380127,9.818634
2018-12-13,04:28:15.550,0.19154358,0.07661438,9.794692999999999
2018-12-13,04:28:15.551,0.24182129,0.11730957,9.835388
2018-12-13,04:28:15.553,0.21069336,0.08618164,9.825821000000001
2018-12-13,04:28:15.630,0.24182129,0.07421875,9.828201
2018-12-13,04:28:15.632,0.28251648,0.04309082,9.797089
2018-12-13,04:28:15.634,0.25857544,0.06703186,9.753983
2018-12-13,04:28:15.636,0.2633667,0.11970519999999998,9.763565
2018-12-13,04:28:15.638,0.22505188,0.16279602,9.746811
2018-12-13,04:28:15.639,0.19871521,0.09336853,9.708496
2018-12-13,04:28:15.641,0.23703003,0.04788208,9.777924
2018-12-13,04:28:15.642,0.16041565,0.12689209,9.763565
2018-12-13,04:28:15.644,0.17239379999999999,0.12210083,9.852158
2018-12-13,04:28:15.722,0.18914795,0.10295105,9.866516
2018-12-13,04:28:15.724,0.1771698,0.10774231,9.852158
2018-12-13,04:28:15.726,0.22744751,0.12689209,9.797089
2018-12-13,04:28:15.728,0.24661255,0.09576416,9.708496
2018-12-13,04:28:15.729,0.24421692,0.09815979,9.639069000000001
2018-12-13,04:28:15.730,0.292099,0.14364624,9.591187
2018-12-13,04:28:15.732,0.2346344,0.13647461,9.653427
2018-12-13,04:28:15.734,0.22505188,0.05506897,9.7061
2018-12-13,04:28:15.736,0.15562439,0.07661438,9.727646
2018-12-13,04:28:15.812,0.17239379999999999,0.07901001,9.768355999999999
2018-12-13,04:28:15.815,0.19393921,0.06703186,9.80188
2018-12-13,04:28:15.818,0.16999817,0.05986023,9.770752
2018-12-13,04:28:15.819,0.12449646,0.11730957,9.730041499999999
2018-12-13,04:28:15.820,0.14605713,0.14364624,9.686950999999999
2018-12-13,04:28:15.822,0.15083313,0.15802002,9.653427
2018-12-13,04:28:15.823,0.15083313,0.10055542,9.703705000000001
2018-12-13,04:28:15.825,0.21308899,0.15083313,9.703705000000001
2018-12-13,04:28:15.826,0.16041565,0.06463623,9.74202
2018-12-13,04:28:15.902,0.18675232,0.07182312,9.797089
2018-12-13,04:28:15.904,0.18914795,0.11491394,9.739624000000001
2018-12-13,04:28:15.906,0.19633484,0.05986023,9.799484
2018-12-13,04:28:15.907,0.19154358,0.08857727,9.785110000000001
2018-12-13,04:28:15.909,0.19393921,0.0909729,9.74202
2018-12-13,04:28:15.910,0.22267151,0.06703186,9.811447
2018-12-13,04:28:15.912,0.19633484,0.13407898,9.816238
2018-12-13,04:28:15.915,0.21548462,0.08380127,9.756378
2018-12-13,04:28:15.917,0.20829773,0.11013794,9.72525
2018-12-13,04:28:15.992,0.22984314,0.10055542,9.739624000000001
2018-12-13,04:28:15.995,0.23703003,0.10774231,9.72525
2018-12-13,04:28:15.997,0.17956543,0.09815979,9.7061
2018-12-13,04:28:15.998,0.22505188,0.09336853,9.737228
2018-12-13,04:28:16.000,0.19393921,0.12689209,9.758774
2018-12-13,04:28:16.001,0.17477417,0.11730957,9.708496
2018-12-13,04:28:16.003,0.18914795,0.17477417,9.753983
2018-12-13,04:28:16.004,0.15562439,0.11013794,9.691742
2018-12-13,04:28:16.006,0.13887024,0.12210083,9.7061
2018-12-13,04:28:16.082,0.10534668,0.0909729,9.804260000000001
2018-12-13,04:28:16.084,0.13647461,0.10055542,9.856933999999999
2018-12-13,04:28:16.085,0.18435669,0.10055542,9.909607000000001
2018-12-13,04:28:16.086,0.19871521,0.12210083,9.859328999999999
2018-12-13,04:28:16.086,0.20350647,0.13168335,9.80188
2018-12-13,04:28:16.087,0.21069336,0.12210083,9.7061
2018-12-13,04:28:16.088,0.25857544,0.09336853,9.713287
2018-12-13,04:28:16.089,0.26097107,0.12928772,9.761169
2018-12-13,04:28:16.090,0.25378418,0.0909729,9.720474000000001
2018-12-13,04:28:16.174,0.25378418,0.12689209,9.785110000000001
2018-12-13,04:28:16.177,0.21788025,0.08618164,9.797089
2018-12-13,04:28:16.179,0.22984314,0.07901001,9.768355999999999
2018-12-13,04:28:16.180,0.23223877,0.05267334,9.813842999999999
2018-12-13,04:28:16.182,0.25617979999999996,0.06224059999999999,9.854538
2018-12-13,04:28:16.184,0.19871521,0.0287323,9.842575
2018-12-13,04:28:16.185,0.24421692,0.04069519,9.832993
2018-12-13,04:28:16.186,0.21548462,0.07182312,9.832993
2018-12-13,04:28:16.188,0.24182129,0.06463623,9.844971000000001
2018-12-13,04:28:16.264,0.23703003,0.06224059999999999,9.835388
2018-12-13,04:28:16.266,0.24421692,0.02394104,9.844971000000001
2018-12-13,04:28:16.267,0.21308899,0.06942749,9.794692999999999
2018-12-13,04:28:16.268,0.20111084,0.0287323,9.756378
2018-12-13,04:28:16.268,0.21308899,0.05986023,9.828201
2018-12-13,04:28:16.269,0.19393921,0.10774231,9.792297
2018-12-13,04:28:16.270,0.20829773,0.11251831,9.677368
2018-12-13,04:28:16.270,0.22505188,0.08618164,9.686950999999999
2018-12-13,04:28:16.271,0.18675232,0.13407898,9.600754
2018-12-13,04:28:16.354,0.21069336,0.10295105,9.595978
2018-12-13,04:28:16.356,0.24661255,0.15322876,9.595978
2018-12-13,04:28:16.358,0.20350647,0.10055542,9.679764
2018-12-13,04:28:16.360,0.16281128,0.11970519999999998,9.655823
2018-12-13,04:28:16.361,0.16999817,0.06942749,9.768355999999999
2018-12-13,04:28:16.363,0.16760254,0.06942749,9.828201
2018-12-13,04:28:16.364,0.16760254,0.09576416,9.854538
2018-12-13,04:28:16.365,0.20111084,0.09576416,9.816238
2018-12-13,04:28:16.366,0.1771698,0.14364624,9.734833
2018-12-13,04:28:16.447,0.19154358,0.1771698,9.679764
2018-12-13,04:28:16.450,0.18914795,0.19631958,9.646255499999999
2018-12-13,04:28:16.452,0.19871521,0.11970519999999998,9.648636
2018-12-13,04:28:16.453,0.17239379999999999,0.16041565,9.730041499999999
2018-12-13,04:28:16.455,0.19871521,0.11730957,9.852158
2018-12-13,04:28:16.457,0.14605713,0.11491394,9.871307
2018-12-13,04:28:16.459,0.13168335,0.10295105,9.897644
2018-12-13,04:28:16.460,0.16041565,0.12210083,9.878494
2018-12-13,04:28:16.462,0.15322876,0.12689209,9.830597000000001
2018-12-13,04:28:16.535,0.17956543,0.12210083,9.737228
2018-12-13,04:28:16.537,0.26815796,0.14125061,9.770752
2018-12-13,04:28:16.538,0.24661255,0.16279602,9.653427
2018-12-13,04:28:16.538,0.24421692,0.12689209,9.689346
2018-12-13,04:28:16.539,0.25857544,0.13407898,9.8090515
2018-12-13,04:28:16.540,0.21548462,0.08857727,9.818634
2018-12-13,04:28:16.541,0.19154358,0.11970519999999998,9.844971000000001
2018-12-13,04:28:16.542,0.18196106,0.08140564,9.82103
2018-12-13,04:28:16.544,0.15562439,0.11970519999999998,9.746811
2018-12-13,04:28:16.625,0.20590210000000003,0.13168335,9.612732000000001
2018-12-13,04:28:16.627,0.25378418,0.16519165,9.648636
2018-12-13,04:28:16.629,0.21308899,0.11491394,9.682159
2018-12-13,04:28:16.630,0.23223877,0.08857727,9.730041499999999
2018-12-13,04:28:16.632,0.24661255,0.09815979,9.773147999999999
2018-12-13,04:28:16.634,0.16999817,0.10774231,9.880875
2018-12-13,04:28:16.635,0.17239379999999999,0.06942749,9.923981
2018-12-13,04:28:16.637,0.20829773,0.0574646,9.861725
2018-12-13,04:28:16.638,0.20829773,0.08140564,9.789902
2018-12-13,04:28:16.715,0.19393921,0.12689209,9.756378
2018-12-13,04:28:16.718,0.18196106,0.1484375,9.720474000000001
2018-12-13,04:28:16.719,0.17239379999999999,0.15562439,9.715683
2018-12-13,04:28:16.721,0.15802002,0.15322876,9.682159
2018-12-13,04:28:16.722,0.16281128,0.16519165,9.646255499999999
2018-12-13,04:28:16.724,0.18196106,0.13407898,9.629486
2018-12-13,04:28:16.725,0.16281128,0.15802002,9.631882000000001
2018-12-13,04:28:16.727,0.1771698,0.10774231,9.686950999999999
2018-12-13,04:28:16.728,0.18914795,0.12689209,9.758774
2018-12-13,04:28:16.806,0.19393921,0.11491394,9.787506
2018-12-13,04:28:16.809,0.23223877,0.12689209,9.804260000000001
2018-12-13,04:28:16.810,0.22984314,0.12210083,9.811447
2018-12-13,04:28:16.812,0.24661255,0.12449646,9.804260000000001
2018-12-13,04:28:16.814,0.2633667,0.15083313,9.82103
2018-12-13,04:28:16.816,0.22027588,0.17237854,9.737228
2018-12-13,04:28:16.818,0.30885315,0.11730957,9.720474000000001
2018-12-13,04:28:16.820,0.21548462,0.15083313,9.708496
2018-12-13,04:28:16.822,0.20829773,0.13407898,9.730041499999999
2018-12-13,04:28:16.898,0.18675232,0.11251831,9.72525
2018-12-13,04:28:16.900,0.16281128,0.11730957,9.674973
2018-12-13,04:28:16.901,0.1436615,0.12689209,9.732437
2018-12-13,04:28:16.902,0.19154358,0.15083313,9.72287
2018-12-13,04:28:16.903,0.1436615,0.11491394,9.679764
2018-12-13,04:28:16.904,0.17477417,0.1484375,9.689346
2018-12-13,04:28:16.905,0.12689209,0.13407898,9.6510315
2018-12-13,04:28:16.906,0.16281128,0.13647461,9.665405
2018-12-13,04:28:16.907,0.15802002,0.12449646,9.674973
2018-12-13,04:28:16.987,0.17956543,0.07901001,9.773147999999999
2018-12-13,04:28:16.989,0.17477417,0.05506897,9.8641205
2018-12-13,04:28:16.990,0.16760254,0.07421875,9.888062
2018-12-13,04:28:16.992,0.12449646,0.05267334,9.873702999999999
2018-12-13,04:28:16.994,0.15083313,0.12210083,9.837784
2018-12-13,04:28:16.995,0.11732483,0.14604187,9.787506
2018-12-13,04:28:16.997,0.22505188,0.17237854,9.6510315
2018-12-13,04:28:16.999,0.24900818,0.19631958,9.569641
2018-12-13,04:28:17.000,0.25617979999999996,0.28491209999999995,9.514572
2018-12-13,04:28:17.077,0.25857544,0.19392395,9.526535
2018-12-13,04:28:17.079,0.2346344,0.14125061,9.655823
2018-12-13,04:28:17.081,0.18435669,0.14604187,9.818634
2018-12-13,04:28:17.083,0.14126587,0.11013794,9.967072
2018-12-13,04:28:17.084,0.12928772,0.11491394,10.012558
2018-12-13,04:28:17.086,0.06465149,0.10774231,9.993408
2018-12-13,04:28:17.087,0.15802002,0.11251831,9.967072
2018-12-13,04:28:17.089,0.11253357,0.16519165,9.813842999999999
2018-12-13,04:28:17.090,0.14605713,0.18675232,9.737228
2018-12-13,04:28:17.167,0.1771698,0.1771698,9.660614
2018-12-13,04:28:17.169,0.18675232,0.13168335,9.617523
2018-12-13,04:28:17.171,0.19393921,0.14604187,9.713287
2018-12-13,04:28:17.173,0.18435669,0.20350647,9.80188
2018-12-13,04:28:17.175,0.18914795,0.20111084,9.761169
2018-12-13,04:28:17.177,0.18196106,0.16519165,9.737228
2018-12-13,04:28:17.178,0.16520691,0.12449646,9.765961
2018-12-13,04:28:17.180,0.1436615,0.16041565,9.794692999999999
2018-12-13,04:28:17.181,0.1149292,0.12449646,9.847366000000001
2018-12-13,04:28:17.258,0.1436615,0.1771698,9.856933999999999
2018-12-13,04:28:17.261,0.1436615,0.16519165,9.806656
2018-12-13,04:28:17.263,0.19154358,0.19871521,9.703705000000001
2018-12-13,04:28:17.264,0.1771698,0.20829773,9.694138
2018-12-13,04:28:17.266,0.19393921,0.17956543,9.648636
2018-12-13,04:28:17.268,0.21548462,0.24180603,9.653427
2018-12-13,04:28:17.270,0.16281128,0.18435669,9.746811
2018-12-13,04:28:17.271,0.17477417,0.24899292,9.770752
2018-12-13,04:28:17.273,0.15083313,0.15802002,9.797089
2018-12-13,04:28:17.351,0.17956543,0.18435669,9.80188
2018-12-13,04:28:17.354,0.13168335,0.20590210000000003,9.739624000000001
2018-12-13,04:28:17.356,0.18196106,0.18913269,9.698929
2018-12-13,04:28:17.358,0.17956543,0.18196106,9.639069000000001
2018-12-13,04:28:17.360,0.21788025,0.1771698,9.679764
2018-12-13,04:28:17.361,0.21308899,0.23703003,9.684555
2018-12-13,04:28:17.363,0.20350647,0.18913269,9.612732000000001
2018-12-13,04:28:17.364,0.22027588,0.2346344,9.718079
2018-12-13,04:28:17.365,0.21069336,0.10055542,9.777924
2018-12-13,04:28:17.438,0.24421692,0.17237854,9.780319
2018-12-13,04:28:17.441,0.21548462,0.16758728,9.830597000000001
2018-12-13,04:28:17.443,0.23942566,0.16279602,9.82103
2018-12-13,04:28:17.444,0.18914795,0.20350647,9.773147999999999
2018-12-13,04:28:17.446,0.22744751,0.18675232,9.749207
2018-12-13,04:28:17.447,0.21308899,0.20590210000000003,9.674973
2018-12-13,04:28:17.448,0.2346344,0.18913269,9.696533
2018-12-13,04:28:17.450,0.21548462,0.20829773,9.686950999999999
2018-12-13,04:28:17.452,0.25378418,0.22026062,9.756378
2018-12-13,04:28:17.528,0.23703003,0.18196106,9.732437
2018-12-13,04:28:17.529,0.25857544,0.2346344,9.765961
2018-12-13,04:28:17.529,0.30645752,0.24659729,9.698929
2018-12-13,04:28:17.530,0.2633667,0.22026062,9.670197
2018-12-13,04:28:17.530,0.28012085,0.24899292,9.753983
2018-12-13,04:28:17.531,0.22027588,0.23941039999999997,9.746811
2018-12-13,04:28:17.532,0.22027588,0.17477417,9.859328999999999
2018-12-13,04:28:17.532,0.19871521,0.16998291,9.919189
2018-12-13,04:28:17.533,0.22267151,0.16998291,9.871307
2018-12-13,04:28:17.619,0.22027588,0.18675232,9.823425
2018-12-13,04:28:17.622,0.22505188,0.24420166,9.72287
2018-12-13,04:28:17.623,0.22505188,0.22265625,9.636673
2018-12-13,04:28:17.625,0.24661255,0.23941039999999997,9.641464
2018-12-13,04:28:17.626,0.26097107,0.21069336,9.677368
2018-12-13,04:28:17.628,0.26576233,0.21786499,9.715683
2018-12-13,04:28:17.629,0.24900818,0.17237854,9.813842999999999
2018-12-13,04:28:17.631,0.26576233,0.12928772,9.787506
2018-12-13,04:28:17.632,0.28251648,0.15562439,9.780319
2018-12-13,04:28:17.709,0.25378418,0.17477417,9.773147999999999
2018-12-13,04:28:17.711,0.24182129,0.19871521,9.701309
2018-12-13,04:28:17.712,0.29689026,0.23941039999999997,9.665405
2018-12-13,04:28:17.713,0.30885315,0.22026062,9.615128
2018-12-13,04:28:17.715,0.27055359999999995,0.21546936,9.579208
2018-12-13,04:28:17.716,0.20829773,0.25857544,9.636673
2018-12-13,04:28:17.718,0.16520691,0.17237854,9.689346
2018-12-13,04:28:17.719,0.18914795,0.18675232,9.739624000000001
2018-12-13,04:28:17.719,0.21788025,0.15083313,9.792297
2018-12-13,04:28:17.801,0.20829773,0.14125061,9.832993
2018-12-13,04:28:17.804,0.17956543,0.09576416,9.773147999999999
2018-12-13,04:28:17.805,0.23223877,0.15802002,9.787506
2018-12-13,04:28:17.807,0.16760254,0.17956543,9.718079
2018-12-13,04:28:17.809,0.18914795,0.23941039999999997,9.684555
2018-12-13,04:28:17.810,0.19154358,0.18435669,9.739624000000001
2018-12-13,04:28:17.812,0.19154358,0.18675232,9.756378
2018-12-13,04:28:17.814,0.20111084,0.19631958,9.763565
2018-12-13,04:28:17.816,0.26097107,0.1771698,9.789902
2018-12-13,04:28:17.894,0.22984314,0.12689209,9.849762
2018-12-13,04:28:17.896,0.22744751,0.13885498,9.856933999999999
2018-12-13,04:28:17.898,0.24661255,0.14604187,9.868912
2018-12-13,04:28:17.899,0.2633667,0.19392395,9.789902
2018-12-13,04:28:17.901,0.26097107,0.22265625,9.667800999999999
2018-12-13,04:28:17.902,0.27294922,0.25857544,9.591187
2018-12-13,04:28:17.904,0.25617979999999996,0.22744751,9.576813000000001
2018-12-13,04:28:17.905,0.22744751,0.25617979999999996,9.6510315
2018-12-13,04:28:17.907,0.22984314,0.15562439,9.72525
2018-12-13,04:28:17.980,0.22027588,0.11970519999999998,9.80188
2018-12-13,04:28:17.981,0.18675232,0.10534668,9.82103
2018-12-13,04:28:17.982,0.15802002,0.10534668,9.890457000000001
2018-12-13,04:28:17.983,0.19633484,0.07421875,9.921585
2018-12-13,04:28:17.984,0.18196106,0.05506897,9.861725
2018-12-13,04:28:17.984,0.18914795,0.14604187,9.861725
2018-12-13,04:28:17.985,0.20590210000000003,0.09815979,9.842575
2018-12-13,04:28:17.986,0.21069336,0.11491394,9.770752
2018-12-13,04:28:17.986,0.21308899,0.16998291,9.710892
2018-12-13,04:28:18.071,0.21069336,0.1484375,9.708496
2018-12-13,04:28:18.073,0.23703003,0.14125061,9.684555
2018-12-13,04:28:18.075,0.17239379999999999,0.0909729,9.665405
2018-12-13,04:28:18.077,0.16281128,0.07661438,9.686950999999999
2018-12-13,04:28:18.078,0.16520691,0.07661438,9.696533
2018-12-13,04:28:18.080,0.22027588,0.08380127,9.718079
2018-12-13,04:28:18.082,0.20590210000000003,0.09336853,9.718079
2018-12-13,04:28:18.083,0.20590210000000003,0.10534668,9.703705000000001
2018-12-13,04:28:18.085,0.25617979999999996,0.16279602,9.691742
2018-12-13,04:28:18.162,0.28730774,0.15083313,9.605545
2018-12-13,04:28:18.164,0.28012085,0.13168335,9.557663
2018-12-13,04:28:18.165,0.24661255,0.11730957,9.557663
2018-12-13,04:28:18.166,0.20111084,0.15083313,9.619919
2018-12-13,04:28:18.168,0.21069336,0.12449646,9.730041499999999
2018-12-13,04:28:18.169,0.17956543,0.10295105,9.794692999999999
2018-12-13,04:28:18.171,0.1436615,0.15322876,9.825821000000001
2018-12-13,04:28:18.173,0.08140564,0.12928772,9.811447
2018-12-13,04:28:18.175,0.11972046,0.12928772,9.751586999999999
2018-12-13,04:28:18.252,0.11253357,0.18196106,9.701309
2018-12-13,04:28:18.254,0.17956543,0.18435669,9.627089999999999
2018-12-13,04:28:18.256,0.13407898,0.13647461,9.689346
2018-12-13,04:28:18.257,0.1149292,0.08857727,9.756378
2018-12-13,04:28:18.259,0.1149292,0.09815979,9.804260000000001
2018-12-13,04:28:18.260,0.13168335,0.10774231,9.835388
2018-12-13,04:28:18.262,0.12928772,0.08380127,9.861725
2018-12-13,04:28:18.263,0.13168335,0.12210083,9.888062
2018-12-13,04:28:18.265,0.11732483,0.13168335,9.868912
2018-12-13,04:28:18.342,0.08619689999999999,0.11491394,9.763565
2018-12-13,04:28:18.343,0.10534668,0.11251831,9.777924
2018-12-13,04:28:18.344,0.12449646,0.09815979,9.773147999999999
2018-12-13,04:28:18.344,0.13168335,0.14604187,9.770752
2018-12-13,04:28:18.345,0.15322876,0.11730957,9.80188
2018-12-13,04:28:18.346,0.12689209,0.07901001,9.856933999999999
2018-12-13,04:28:18.347,0.11013794,0.10534668,9.897644
2018-12-13,04:28:18.347,0.08140564,0.14604187,9.926376
2018-12-13,04:28:18.348,0.12449646,0.11730957,9.890457000000001
2018-12-13,04:28:18.433,0.09098816,0.09576416,9.868912
2018-12-13,04:28:18.435,0.12928772,0.11491394,9.842575
2018-12-13,04:28:18.437,0.10774231,0.11970519999999998,9.813842999999999
2018-12-13,04:28:18.438,0.12449646,0.11491394,9.730041499999999
2018-12-13,04:28:18.440,0.13647461,0.11970519999999998,9.732437
2018-12-13,04:28:18.441,0.14605713,0.07421875,9.8090515
2018-12-13,04:28:18.443,0.13887024,0.09815979,9.868912
2018-12-13,04:28:18.444,0.12689209,0.08857727,9.923981
2018-12-13,04:28:18.446,0.13168335,0.08618164,9.890457000000001
2018-12-13,04:28:18.524,0.14126587,0.07901001,9.825821000000001
2018-12-13,04:28:18.526,0.11972046,0.15083313,9.749207
2018-12-13,04:28:18.528,0.11972046,0.11251831,9.686950999999999
2018-12-13,04:28:18.529,0.15562439,0.11013794,9.636673
2018-12-13,04:28:18.530,0.17477417,0.16519165,9.66301
2018-12-13,04:28:18.533,0.16520691,0.0909729,9.708496
2018-12-13,04:28:18.535,0.1436615,0.04788208,9.777924
2018-12-13,04:28:18.537,0.1484375,0.08380127,9.80188
2018-12-13,04:28:18.538,0.15562439,0.05986023,9.873702999999999
2018-12-13,04:28:18.614,0.1436615,0.08857727,9.811447
2018-12-13,04:28:18.616,0.18435669,0.08618164,9.72287
2018-12-13,04:28:18.618,0.14126587,0.11251831,9.641464
2018-12-13,04:28:18.620,0.19393921,0.16279602,9.562453999999999
2018-12-13,04:28:18.622,0.18196106,0.14364624,9.531326
2018-12-13,04:28:18.623,0.16999817,0.11491394,9.560058999999999
2018-12-13,04:28:18.625,0.12689209,0.07901001,9.655823
2018-12-13,04:28:18.626,0.13647461,0.06463623,9.715683
2018-12-13,04:28:18.627,0.10295105,0.02154541,9.811447
2018-12-13,04:28:18.705,0.06704712,0.02394104,9.852158
2018-12-13,04:28:18.707,0.02633667,0.07182312,9.861725
2018-12-13,04:28:18.709,0.03831482,0.03352356,9.8090515
2018-12-13,04:28:18.710,0.04788208,0.07901001,9.703705000000001
2018-12-13,04:28:18.712,0.06465149,0.05267334,9.691742
2018-12-13,04:28:18.714,0.12210083,0.09336853,9.674973
2018-12-13,04:28:18.716,0.14126587,0.07421875,9.660614
2018-12-13,04:28:18.718,0.16281128,0.10774231,9.64386
2018-12-13,04:28:18.720,0.19871521,0.05027771,9.718079
2018-12-13,04:28:18.796,0.15083313,0.10774231,9.713287
2018-12-13,04:28:18.798,0.18196106,0.06942749,9.761169
2018-12-13,04:28:18.800,0.19393921,0.06942749,9.823425
2018-12-13,04:28:18.802,0.18914795,0.11013794,9.813842999999999
2018-12-13,04:28:18.803,0.18435669,0.10774231,9.763565
2018-12-13,04:28:18.805,0.19633484,0.11251831,9.72287
2018-12-13,04:28:18.806,0.20829773,0.13407898,9.691742
2018-12-13,04:28:18.808,0.21548462,0.14364624,9.672592
2018-12-13,04:28:18.809,0.18675232,0.14364624,9.677368
2018-12-13,04:28:18.886,0.22505188,0.06942749,9.761169
2018-12-13,04:28:18.888,0.18675232,0.08857727,9.789902
2018-12-13,04:28:18.890,0.13407898,0.06463623,9.88327
2018-12-13,04:28:18.891,0.12449646,0.07661438,9.919189
2018-12-13,04:28:18.893,0.13168335,0.06942749,9.964675999999999
2018-12-13,04:28:18.895,0.13168335,0.08618164,9.916794
2018-12-13,04:28:18.897,0.10055542,0.14364624,9.82103
2018-12-13,04:28:18.899,0.09577942,0.10774231,9.804260000000001
2018-12-13,04:28:18.900,0.1149292,0.12210083,9.768355999999999
2018-12-13,04:28:18.975,0.11013794,0.11491394,9.744415
2018-12-13,04:28:18.978,0.08859253,0.1484375,9.715683
2018-12-13,04:28:18.980,0.10774231,0.07661438,9.670197
2018-12-13,04:28:18.981,0.08140564,0.08140564,9.770752
2018-12-13,04:28:18.983,0.10055542,0.08140564,9.789902
2018-12-13,04:28:18.985,0.08619689999999999,0.05986023,9.830597000000001
2018-12-13,04:28:18.986,0.11253357,0.10774231,9.765961
2018-12-13,04:28:18.988,0.14126587,0.14364624,9.672592
2018-12-13,04:28:18.989,0.22984314,0.13885498,9.5121765
2018-12-13,04:28:19.066,0.25378418,0.19392395,9.483444
2018-12-13,04:28:19.068,0.2633667,0.12689209,9.533722000000001
2018-12-13,04:28:19.070,0.25857544,0.13885498,9.5720215
2018-12-13,04:28:19.072,0.28012085,0.10055542,9.646255499999999
2018-12-13,04:28:19.074,0.26097107,0.07901001,9.636673
2018-12-13,04:28:19.075,0.26815796,0.08380127,9.715683
2018-12-13,04:28:19.077,0.27772522,0.07421875,9.82103
2018-12-13,04:28:19.078,0.23223877,0.09815979,9.830597000000001
2018-12-13,04:28:19.080,0.20829773,0.12449646,9.8641205
2018-12-13,04:28:19.157,0.1771698,0.0909729,9.8641205
2018-12-13,04:28:19.159,0.18914795,0.09815979,9.885666
2018-12-13,04:28:19.161,0.17477417,0.12928772,9.880875
2018-12-13,04:28:19.163,0.16760254,0.0909729,9.902435
2018-12-13,04:28:19.164,0.16760254,0.0574646,9.880875
2018-12-13,04:28:19.166,0.22267151,0.08140564,9.847366000000001
2018-12-13,04:28:19.167,0.21308899,0.09815979,9.876099
2018-12-13,04:28:19.168,0.15083313,0.04548645,9.847366000000001
2018-12-13,04:28:19.170,0.1149292,0.07182312,9.859328999999999
2018-12-13,04:28:19.247,0.16760254,0.10055542,9.82103
2018-12-13,04:28:19.249,0.17239379999999999,0.08618164,9.80188
2018-12-13,04:28:19.251,0.19393921,0.11730957,9.756378
2018-12-13,04:28:19.253,0.17956543,0.11730957,9.727646
2018-12-13,04:28:19.255,0.19633484,0.11013794,9.732437
2018-12-13,04:28:19.257,0.19154358,0.06463623,9.732437
2018-12-13,04:28:19.258,0.16281128,0.11251831,9.737228
2018-12-13,04:28:19.260,0.18196106,0.11491394,9.787506
2018-12-13,04:28:19.261,0.16999817,0.12210083,9.797089
2018-12-13,04:28:19.338,0.16760254,0.10774231,9.74202
2018-12-13,04:28:19.340,0.18435669,0.15802002,9.684555
2018-12-13,04:28:19.341,0.16520691,0.15802002,9.684555
2018-12-13,04:28:19.344,0.15562439,0.16519165,9.605545
2018-12-13,04:28:19.346,0.14605713,0.15322876,9.574417
2018-12-13,04:28:19.347,0.15562439,0.17237854,9.586395
2018-12-13,04:28:19.349,0.1771698,0.13647461,9.581603999999999
2018-12-13,04:28:19.352,0.15802002,0.10534668,9.746811
2018-12-13,04:28:19.356,0.09577942,0.10534668,9.8090515
2018-12-13,04:28:19.433,0.11253357,0.04069519,9.852158
2018-12-13,04:28:19.434,0.1484375,0.10295105,9.830597000000001
2018-12-13,04:28:19.435,0.14126587,0.14125061,9.756378
2018-12-13,04:28:19.436,0.14126587,0.15322876,9.72287
2018-12-13,04:28:19.436,0.1771698,0.12689209,9.631882000000001
2018-12-13,04:28:19.437,0.21788025,0.13168335,9.686950999999999
2018-12-13,04:28:19.438,0.25617979999999996,0.1484375,9.710892
2018-12-13,04:28:19.438,0.24900818,0.13647461,9.837784
2018-12-13,04:28:19.439,0.25617979999999996,0.16279602,9.852158
2018-12-13,04:28:19.518,0.27055359999999995,0.14604187,9.813842999999999
2018-12-13,04:28:19.520,0.25857544,0.14364624,9.82103
2018-12-13,04:28:19.522,0.22744751,0.21308899,9.758774
2018-12-13,04:28:19.524,0.2346344,0.12689209,9.782715
2018-12-13,04:28:19.525,0.21308899,0.13407898,9.813842999999999
2018-12-13,04:28:19.526,0.20590210000000003,0.11730957,9.806656
2018-12-13,04:28:19.528,0.20350647,0.14364624,9.8090515
2018-12-13,04:28:19.529,0.20350647,0.16758728,9.765961
2018-12-13,04:28:19.531,0.1771698,0.10534668,9.720474000000001
2018-12-13,04:28:19.608,0.21548462,0.12449646,9.684555
2018-12-13,04:28:19.610,0.19871521,0.14364624,9.648636
2018-12-13,04:28:19.612,0.1484375,0.17237854,9.696533
2018-12-13,04:28:19.614,0.23942566,0.11970519999999998,9.703705000000001
2018-12-13,04:28:19.615,0.22505188,0.16519165,9.751586999999999
2018-12-13,04:28:19.617,0.17239379999999999,0.1771698,9.720474000000001
2018-12-13,04:28:19.618,0.17956543,0.14604187,9.746811
2018-12-13,04:28:19.620,0.22505188,0.11491394,9.718079
2018-12-13,04:28:19.621,0.15802002,0.17237854,9.703705000000001
2018-12-13,04:28:19.699,0.21308899,0.13885498,9.677368
2018-12-13,04:28:19.702,0.19871521,0.16279602,9.64386
2018-12-13,04:28:19.704,0.23223877,0.20829773,9.665405
2018-12-13,04:28:19.705,0.24182129,0.13168335,9.7061
2018-12-13,04:28:19.707,0.21788025,0.11013794,9.780319
2018-12-13,04:28:19.708,0.19633484,0.11730957,9.830597000000001
2018-12-13,04:28:19.709,0.1771698,0.07182312,9.852158
2018-12-13,04:28:19.711,0.18675232,0.09815979,9.825821000000001
2018-12-13,04:28:19.713,0.1484375,0.07421875,9.837784
2018-12-13,04:28:19.790,0.16760254,0.08857727,9.785110000000001
2018-12-13,04:28:19.792,0.15802002,0.0909729,9.852158
2018-12-13,04:28:19.795,0.18914795,0.12928772,9.835388
2018-12-13,04:28:19.796,0.17477417,0.13407898,9.765961
2018-12-13,04:28:19.798,0.19633484,0.0909729,9.756378
2018-12-13,04:28:19.799,0.24421692,0.15083313,9.667800999999999
2018-12-13,04:28:19.802,0.17956543,0.18196106,9.653427
2018-12-13,04:28:19.804,0.20590210000000003,0.17477417,9.615128
2018-12-13,04:28:19.805,0.17477417,0.16998291,9.593582000000001
2018-12-13,04:28:19.882,0.18675232,0.13168335,9.603149
2018-12-13,04:28:19.884,0.13168335,0.18196106,9.672592
2018-12-13,04:28:19.886,0.21788025,0.17956543,9.686950999999999
2018-12-13,04:28:19.887,0.16520691,0.16279602,9.727646
2018-12-13,04:28:19.889,0.21788025,0.16041565,9.703705000000001
2018-12-13,04:28:19.891,0.21069336,0.15322876,9.710892
2018-12-13,04:28:19.893,0.17239379999999999,0.17477417,9.737228
2018-12-13,04:28:19.895,0.21069336,0.14364624,9.710892
2018-12-13,04:28:19.896,0.18435669,0.13647461,9.74202
2018-12-13,04:28:19.974,0.19633484,0.13647461,9.777924
2018-12-13,04:28:19.976,0.17956543,0.12928772,9.852158
2018-12-13,04:28:19.978,0.17239379999999999,0.15322876,9.797089
2018-12-13,04:28:19.980,0.17477417,0.13168335,9.830597000000001
2018-12-13,04:28:19.982,0.22505188,0.11730957,9.8090515
2018-12-13,04:28:19.983,0.13887024,0.17956543,9.777924
2018-12-13,04:28:19.985,0.16281128,0.1771698,9.710892
2018-12-13,04:28:19.986,0.18675232,0.22505188,9.734833
2018-12-13,04:28:19.988,0.17477417,0.19392395,9.749207
2018-12-13,04:28:20.062,0.16041565,0.16998291,9.777924
2018-12-13,04:28:20.063,0.19871521,0.15802002,9.777924
2018-12-13,04:28:20.065,0.20590210000000003,0.13407898,9.830597000000001
2018-12-13,04:28:20.066,0.24900818,0.13407898,9.825821000000001
2018-12-13,04:28:20.067,0.23942566,0.11251831,9.823425
2018-12-13,04:28:20.069,0.21788025,0.16758728,9.799484
2018-12-13,04:28:20.070,0.18196106,0.13885498,9.758774
2018-12-13,04:28:20.072,0.22505188,0.13168335,9.859328999999999
2018-12-13,04:28:20.074,0.23223877,0.18913269,9.8090515
2018-12-13,04:28:20.150,0.25138855,0.15322876,9.768355999999999
2018-12-13,04:28:20.153,0.21548462,0.19631958,9.694138
2018-12-13,04:28:20.155,0.22505188,0.14364624,9.631882000000001
2018-12-13,04:28:20.156,0.27055359999999995,0.20111084,9.617523
2018-12-13,04:28:20.158,0.19393921,0.12689209,9.730041499999999
2018-12-13,04:28:20.160,0.22505188,0.10774231,9.806656
2018-12-13,04:28:20.161,0.21548462,0.11013794,9.885666
2018-12-13,04:28:20.163,0.20111084,0.11970519999999998,9.892853
2018-12-13,04:28:20.164,0.21788025,0.13168335,9.919189
2018-12-13,04:28:20.242,0.20829773,0.10534668,9.770752
2018-12-13,04:28:20.245,0.21308899,0.13168335,9.658218
2018-12-13,04:28:20.246,0.21548462,0.16519165,9.641464
2018-12-13,04:28:20.248,0.24661255,0.12928772,9.665405
2018-12-13,04:28:20.249,0.22984314,0.17477417,9.658218
2018-12-13,04:28:20.251,0.25138855,0.14125061,9.686950999999999
2018-12-13,04:28:20.252,0.25378418,0.17956543,9.6510315
2018-12-13,04:28:20.254,0.25617979999999996,0.16519165,9.6510315
2018-12-13,04:28:20.256,0.22267151,0.13647461,9.734833
2018-12-13,04:28:20.333,0.20350647,0.13168335,9.825821000000001
2018-12-13,04:28:20.336,0.18914795,0.19152832,9.804260000000001
2018-12-13,04:28:20.338,0.22267151,0.16041565,9.813842999999999
2018-12-13,04:28:20.340,0.22505188,0.11970519999999998,9.715683
2018-12-13,04:28:20.343,0.2346344,0.15322876,9.66301
2018-12-13,04:28:20.344,0.22505188,0.15562439,9.636673
2018-12-13,04:28:20.346,0.22267151,0.16519165,9.66301
2018-12-13,04:28:20.347,0.24900818,0.13885498,9.689346
2018-12-13,04:28:20.349,0.19154358,0.1484375,9.698929
2018-12-13,04:28:20.424,0.18914795,0.08857727,9.753983
2018-12-13,04:28:20.427,0.16520691,0.13168335,9.840179
2018-12-13,04:28:20.429,0.18675232,0.13168335,9.797089
2018-12-13,04:28:20.430,0.18196106,0.14604187,9.74202
2018-12-13,04:28:20.432,0.16760254,0.18196106,9.689346
2018-12-13,04:28:20.434,0.15083313,0.16519165,9.698929
2018-12-13,04:28:20.436,0.18196106,0.17477417,9.744415
2018-12-13,04:28:20.438,0.14126587,0.15562439,9.720474000000001
2018-12-13,04:28:20.440,0.13407898,0.19152832,9.763565
2018-12-13,04:28:20.514,0.17477417,0.12928772,9.80188
2018-12-13,04:28:20.516,0.20590210000000003,0.14125061,9.813842999999999
2018-12-13,04:28:20.519,0.22744751,0.14364624,9.813842999999999
2018-12-13,04:28:20.520,0.23942566,0.19871521,9.746811
2018-12-13,04:28:20.522,0.2346344,0.19152832,9.639069000000001
2018-12-13,04:28:20.523,0.22267151,0.17956543,9.639069000000001
2018-12-13,04:28:20.525,0.25617979999999996,0.19152832,9.617523
2018-12-13,04:28:20.526,0.20350647,0.18435669,9.718079
2018-12-13,04:28:20.528,0.22267151,0.15322876,9.837784
2018-12-13,04:28:20.604,0.21308899,0.14364624,9.900039999999999
2018-12-13,04:28:20.606,0.19393921,0.11013794,9.969467
2018-12-13,04:28:20.608,0.18196106,0.10055542,9.914398
2018-12-13,04:28:20.609,0.2346344,0.08140564,9.844971000000001
2018-12-13,04:28:20.611,0.21548462,0.14364624,9.854538
2018-12-13,04:28:20.613,0.16520691,0.14364624,9.777924
2018-12-13,04:28:20.615,0.20350647,0.16279602,9.804260000000001
2018-12-13,04:28:20.616,0.21308899,0.15802002,9.818634
2018-12-13,04:28:20.618,0.22505188,0.17237854,9.739624000000001
2018-12-13,04:28:20.693,0.21788025,0.15083313,9.691742
2018-12-13,04:28:20.695,0.22027588,0.21786499,9.66301
2018-12-13,04:28:20.695,0.18196106,0.19871521,9.636673
2018-12-13,04:28:20.696,0.16281128,0.20111084,9.605545
2018-12-13,04:28:20.697,0.14605713,0.17237854,9.653427
2018-12-13,04:28:20.698,0.12449646,0.1771698,9.74202
2018-12-13,04:28:20.698,0.13647461,0.15083313,9.763565
2018-12-13,04:28:20.699,0.15083313,0.12928772,9.832993
2018-12-13,04:28:20.700,0.16999817,0.15562439,9.773147999999999
2018-12-13,04:28:20.785,0.18914795,0.11730957,9.816238
2018-12-13,04:28:20.787,0.22027588,0.1484375,9.818634
2018-12-13,04:28:20.789,0.18675232,0.13647461,9.830597000000001
2018-12-13,04:28:20.791,0.21069336,0.10534668,9.8090515
2018-12-13,04:28:20.794,0.23223877,0.12928772,9.794692999999999
2018-12-13,04:28:20.796,0.19633484,0.14364624,9.756378
2018-12-13,04:28:20.798,0.19871521,0.16998291,9.720474000000001
2018-12-13,04:28:20.799,0.19633484,0.15562439,9.617523
2018-12-13,04:28:20.801,0.22984314,0.18196106,9.579208
2018-12-13,04:28:20.877,0.18435669,0.17237854,9.5672455
2018-12-13,04:28:20.880,0.22505188,0.20829773,9.7061
2018-12-13,04:28:20.882,0.21069336,0.16519165,9.768355999999999
2018-12-13,04:28:20.884,0.18675232,0.17477417,9.816238
2018-12-13,04:28:20.886,0.19633484,0.14125061,9.811447
2018-12-13,04:28:20.887,0.16520691,0.09815979,9.730041499999999
2018-12-13,04:28:20.889,0.26815796,0.14125061,9.765961
2018-12-13,04:28:20.890,0.24900818,0.12449646,9.708496
2018-12-13,04:28:20.892,0.21548462,0.10534668,9.763565
2018-12-13,04:28:20.965,0.24900818,0.10055542,9.703705000000001
2018-12-13,04:28:20.966,0.22505188,0.13407898,9.758774
2018-12-13,04:28:20.968,0.22267151,0.1484375,9.773147999999999
2018-12-13,04:28:20.968,0.24182129,0.14364624,9.749207
2018-12-13,04:28:20.969,0.19633484,0.15322876,9.698929
2018-12-13,04:28:20.970,0.21548462,0.17956543,9.691742
2018-12-13,04:28:20.971,0.20829773,0.18435669,9.639069000000001
2018-12-13,04:28:20.973,0.22505188,0.13647461,9.696533
2018-12-13,04:28:20.975,0.21548462,0.18196106,9.72287
2018-12-13,04:28:21.056,0.22984314,0.16998291,9.770752
2018-12-13,04:28:21.059,0.20829773,0.12689209,9.818634
2018-12-13,04:28:21.061,0.22027588,0.19152832,9.811447
2018-12-13,04:28:21.063,0.1771698,0.15562439,9.816238
2018-12-13,04:28:21.064,0.16281128,0.09576416,9.856933999999999
2018-12-13,04:28:21.066,0.20350647,0.12449646,9.885666
2018-12-13,04:28:21.067,0.16281128,0.04788208,9.943130499999999
2018-12-13,04:28:21.069,0.19393921,0.10534668,10.012558
2018-12-13,04:28:21.070,0.12928772,0.12210083,9.995804
2018-12-13,04:28:21.145,0.18435669,0.11251831,9.959885
2018-12-13,04:28:21.146,0.24421692,0.12449646,9.955109
2018-12-13,04:28:21.147,0.21069336,0.11730957,9.897644
2018-12-13,04:28:21.148,0.19393921,0.16998291,9.842575
2018-12-13,04:28:21.148,0.19633484,0.15802002,9.751586999999999
2018-12-13,04:28:21.149,0.22505188,0.22265625,9.732437
2018-12-13,04:28:21.150,0.18675232,0.18913269,9.679764
2018-12-13,04:28:21.150,0.20350647,0.23223877,9.593582000000001
2018-12-13,04:28:21.151,0.13647461,0.25378418,9.658218
2018-12-13,04:28:21.236,0.18675232,0.27772522,9.686950999999999
2018-12-13,04:28:21.239,0.1771698,0.21786499,9.677368
2018-12-13,04:28:21.242,0.15083313,0.24420166,9.64386
2018-12-13,04:28:21.243,0.20350647,0.25378418,9.634277
2018-12-13,04:28:21.245,0.11972046,0.23703003,9.631882000000001
2018-12-13,04:28:21.246,0.16281128,0.25138855,9.612732000000001
2018-12-13,04:28:21.248,0.1436615,0.21069336,9.641464
2018-12-13,04:28:21.249,0.12689209,0.18675232,9.607941
2018-12-13,04:28:21.251,0.1149292,0.16519165,9.641464
2018-12-13,04:28:21.326,0.09338379,0.22265625,9.576813000000001
2018-12-13,04:28:21.329,0.10774231,0.18913269,9.569641
2018-12-13,04:28:21.330,0.13647461,0.18435669,9.605545
2018-12-13,04:28:21.332,0.12928772,0.20590210000000003,9.653427
2018-12-13,04:28:21.335,0.15562439,0.18435669,9.636673
2018-12-13,04:28:21.337,0.14126587,0.15802002,9.627089999999999
2018-12-13,04:28:21.339,0.14126587,0.15802002,9.694138
2018-12-13,04:28:21.341,0.15562439,0.13647461,9.715683
2018-12-13,04:28:21.342,0.16999817,0.19631958,9.770752
2018-12-13,04:28:21.417,0.19871521,0.15083313,9.792297
2018-12-13,04:28:21.418,0.16999817,0.17477417,9.689346
2018-12-13,04:28:21.419,0.18675232,0.21786499,9.773147999999999
2018-12-13,04:28:21.420,0.2346344,0.24420166,9.763565
2018-12-13,04:28:21.421,0.21548462,0.20590210000000003,9.689346
2018-12-13,04:28:21.422,0.21548462,0.21069336,9.684555
2018-12-13,04:28:21.423,0.25857544,0.22984314,9.713287
2018-12-13,04:28:21.424,0.2346344,0.21546936,9.751586999999999
2018-12-13,04:28:21.426,0.24900818,0.15083313,9.80188
2018-12-13,04:28:21.507,0.21788025,0.18675232,9.856933999999999
2018-12-13,04:28:21.509,0.21788025,0.16758728,9.964675999999999
2018-12-13,04:28:21.510,0.19633484,0.19392395,9.940735
2018-12-13,04:28:21.511,0.23942566,0.20350647,9.971863
2018-12-13,04:28:21.512,0.12689209,0.23223877,9.885666
2018-12-13,04:28:21.514,0.10055542,0.16519165,9.806656
2018-12-13,04:28:21.515,0.18196106,0.28730774,9.816238
2018-12-13,04:28:21.516,0.12928772,0.29208374,9.763565
2018-12-13,04:28:21.517,0.09815979,0.23941039999999997,9.787506
2018-12-13,04:28:21.600,0.10774231,0.25138855,9.701309
2018-12-13,04:28:21.601,0.14605713,0.2633667,9.734833
2018-12-13,04:28:21.603,0.12449646,0.24659729,9.777924
2018-12-13,04:28:21.605,0.12210083,0.2633667,9.72525
2018-12-13,04:28:21.606,0.15322876,0.22505188,9.768355999999999
2018-12-13,04:28:21.608,0.1484375,0.20111084,9.789902
2018-12-13,04:28:21.610,0.14605713,0.20350647,9.780319
2018-12-13,04:28:21.611,0.16281128,0.19152832,9.825821000000001
2018-12-13,04:28:21.613,0.11972046,0.19152832,9.787506
2018-12-13,04:28:21.688,0.09338379,0.21308899,9.792297
2018-12-13,04:28:21.690,0.09098816,0.18196106,9.737228
2018-12-13,04:28:21.692,0.17239379999999999,0.21069336,9.732437
2018-12-13,04:28:21.695,0.14126587,0.2633667,9.689346
2018-12-13,04:28:21.696,0.18196106,0.22026062,9.677368
2018-12-13,04:28:21.698,0.19154358,0.27053833,9.591187
2018-12-13,04:28:21.700,0.19633484,0.20590210000000003,9.622314
2018-12-13,04:28:21.701,0.18196106,0.22984314,9.631882000000001
2018-12-13,04:28:21.702,0.14126587,0.26097107,9.756378
2018-12-13,04:28:21.778,0.16760254,0.19871521,9.732437
2018-12-13,04:28:21.780,0.14126587,0.18913269,9.701309
2018-12-13,04:28:21.782,0.15562439,0.19631958,9.72287
2018-12-13,04:28:21.783,0.18435669,0.18675232,9.677368
2018-12-13,04:28:21.785,0.12689209,0.1771698,9.684555
2018-12-13,04:28:21.786,0.24421692,0.17237854,9.689346
2018-12-13,04:28:21.788,0.21308899,0.25378418,9.703705000000001
2018-12-13,04:28:21.789,0.24182129,0.17477417,9.691742
2018-12-13,04:28:21.790,0.18914795,0.20590210000000003,9.684555
2018-12-13,04:28:21.869,0.22505188,0.21308899,9.658218
2018-12-13,04:28:21.872,0.22744751,0.20350647,9.653427
2018-12-13,04:28:21.875,0.22267151,0.22984314,9.684555
2018-12-13,04:28:21.876,0.21069336,0.20111084,9.677368
2018-12-13,04:28:21.878,0.18435669,0.20111084,9.686950999999999
2018-12-13,04:28:21.880,0.17477417,0.20350647,9.770752
2018-12-13,04:28:21.881,0.17239379999999999,0.18913269,9.873702999999999
2018-12-13,04:28:21.883,0.18675232,0.25378418,9.892853
2018-12-13,04:28:21.884,0.21308899,0.21069336,9.832993
2018-12-13,04:28:21.960,0.21788025,0.23941039999999997,9.8090515
2018-12-13,04:28:21.962,0.20350647,0.25378418,9.677368
2018-12-13,04:28:21.964,0.20111084,0.27772522,9.7061
2018-12-13,04:28:21.965,0.21069336,0.27293396,9.753983
2018-12-13,04:28:21.967,0.23942566,0.20829773,9.785110000000001
2018-12-13,04:28:21.968,0.20590210000000003,0.2633667,9.789902
2018-12-13,04:28:21.970,0.1484375,0.20590210000000003,9.80188
2018-12-13,04:28:21.972,0.17477417,0.20350647,9.806656
2018-12-13,04:28:21.975,0.09338379,0.21069336,9.797089
2018-12-13,04:28:22.050,0.15083313,0.21069336,9.830597000000001
2018-12-13,04:28:22.051,0.13168335,0.20590210000000003,9.837784
2018-12-13,04:28:22.052,0.12210083,0.22505188,9.787506
2018-12-13,04:28:22.054,0.17956543,0.22744751,9.775542999999999
2018-12-13,04:28:22.055,0.21548462,0.21308899,9.691742
2018-12-13,04:28:22.056,0.19633484,0.18435669,9.64386
2018-12-13,04:28:22.057,0.22027588,0.26097107,9.667800999999999
2018-12-13,04:28:22.058,0.23223877,0.22744751,9.686950999999999
2018-12-13,04:28:22.059,0.19871521,0.22984314,9.7061
2018-12-13,04:28:22.140,0.21069336,0.21546936,9.777924
2018-12-13,04:28:22.143,0.20350647,0.20590210000000003,9.780319
2018-12-13,04:28:22.145,0.15802002,0.21546936,9.770752
2018-12-13,04:28:22.146,0.15322876,0.17956543,9.866516
2018-12-13,04:28:22.148,0.17956543,0.17237854,9.868912
2018-12-13,04:28:22.149,0.1436615,0.18435669,9.804260000000001
2018-12-13,04:28:22.152,0.16760254,0.16758728,9.768355999999999
2018-12-13,04:28:22.153,0.15083313,0.22026062,9.734833
2018-12-13,04:28:22.155,0.17956543,0.20350647,9.667800999999999
2018-12-13,04:28:22.232,0.17239379999999999,0.20350647,9.694138
2018-12-13,04:28:22.234,0.19393921,0.14604187,9.734833
2018-12-13,04:28:22.236,0.14126587,0.16998291,9.80188
2018-12-13,04:28:22.238,0.18196106,0.15562439,9.816238
2018-12-13,04:28:22.240,0.19154358,0.13647461,9.804260000000001
2018-12-13,04:28:22.241,0.19871521,0.15322876,9.828201
2018-12-13,04:28:22.243,0.20829773,0.17956543,9.792297
2018-12-13,04:28:22.244,0.23703003,0.19871521,9.701309
2018-12-13,04:28:22.246,0.27294922,0.21308899,9.610336
2018-12-13,04:28:22.322,0.29689026,0.25857544,9.5672455
2018-12-13,04:28:22.324,0.28970337,0.24180603,9.576813000000001
2018-12-13,04:28:22.325,0.292099,0.21069336,9.634277
2018-12-13,04:28:22.327,0.26815796,0.17477417,9.780319
2018-12-13,04:28:22.328,0.23223877,0.17477417,9.818634
2018-12-13,04:28:22.330,0.24900818,0.1484375,9.888062
2018-12-13,04:28:22.331,0.17239379999999999,0.16279602,9.844971000000001
2018-12-13,04:28:22.333,0.15083313,0.12928772,9.840179
2018-12-13,04:28:22.335,0.18196106,0.18196106,9.828201
2018-12-13,04:28:22.416,0.20590210000000003,0.1771698,9.8641205
2018-12-13,04:28:22.418,0.13887024,0.18196106,9.859328999999999
2018-12-13,04:28:22.420,0.18914795,0.18435669,9.880875
2018-12-13,04:28:22.421,0.19633484,0.21308899,9.847366000000001
2018-12-13,04:28:22.423,0.24421692,0.18675232,9.804260000000001
2018-12-13,04:28:22.424,0.2346344,0.18196106,9.789902
2018-12-13,04:28:22.426,0.2633667,0.25617979999999996,9.655823
2018-12-13,04:28:22.427,0.23223877,0.2633667,9.615128
2018-12-13,04:28:22.429,0.20829773,0.24420166,9.54808
2018-12-13,04:28:22.502,0.18196106,0.20590210000000003,9.600754
2018-12-13,04:28:22.505,0.18675232,0.23223877,9.739624000000001
2018-12-13,04:28:22.506,0.20590210000000003,0.19152832,9.80188
2018-12-13,04:28:22.508,0.21308899,0.20111084,9.859328999999999
2018-12-13,04:28:22.510,0.20350647,0.14364624,9.765961
2018-12-13,04:28:22.512,0.20111084,0.1771698,9.753983
2018-12-13,04:28:22.514,0.2346344,0.20829773,9.674973
2018-12-13,04:28:22.516,0.25857544,0.19871521,9.617523
2018-12-13,04:28:22.519,0.19154358,0.17956543,9.655823
2018-12-13,04:28:22.592,0.24421692,0.16519165,9.732437
2018-12-13,04:28:22.595,0.18196106,0.20111084,9.789902
2018-12-13,04:28:22.597,0.12449646,0.13885498,9.842575
2018-12-13,04:28:22.598,0.15802002,0.11730957,9.895247999999999
2018-12-13,04:28:22.600,0.13407898,0.16998291,9.895247999999999
2018-12-13,04:28:22.601,0.14605713,0.1771698,9.830597000000001
2018-12-13,04:28:22.603,0.16281128,0.20829773,9.775542999999999
2018-12-13,04:28:22.604,0.15083313,0.21546936,9.6510315
2018-12-13,04:28:22.606,0.17956543,0.23703003,9.562453999999999
2018-12-13,04:28:22.683,0.18675232,0.22984314,9.619919
2018-12-13,04:28:22.685,0.19154358,0.22984314,9.670197
2018-12-13,04:28:22.686,0.19393921,0.20829773,9.780319
2018-12-13,04:28:22.688,0.14126587,0.16519165,9.818634
2018-12-13,04:28:22.689,0.13647461,0.17956543,9.835388
2018-12-13,04:28:22.691,0.16760254,0.19871521,9.799484
2018-12-13,04:28:22.693,0.19633484,0.19871521,9.765961
2018-12-13,04:28:22.694,0.18675232,0.22984314,9.782715
2018-12-13,04:28:22.696,0.20111084,0.22505188,9.797089
2018-12-13,04:28:22.777,0.23223877,0.23703003,9.72287
2018-12-13,04:28:22.779,0.22267151,0.24180603,9.684555
2018-12-13,04:28:22.781,0.22027588,0.27053833,9.677368
2018-12-13,04:28:22.782,0.26576233,0.18913269,9.653427
2018-12-13,04:28:22.784,0.23703003,0.21069336,9.710892
2018-12-13,04:28:22.785,0.28970337,0.18913269,9.746811
2018-12-13,04:28:22.787,0.27055359999999995,0.15322876,9.792297
2018-12-13,04:28:22.788,0.20590210000000003,0.14125061,9.856933999999999
2018-12-13,04:28:22.789,0.18914795,0.13407898,9.852158
2018-12-13,04:28:22.864,0.2346344,0.18435669,9.873702999999999
2018-12-13,04:28:22.867,0.21308899,0.18196106,9.80188
2018-12-13,04:28:22.868,0.22267151,0.18196106,9.732437
2018-12-13,04:28:22.870,0.21548462,0.22026062,9.696533
2018-12-13,04:28:22.871,0.27294922,0.19392395,9.658218
2018-12-13,04:28:22.873,0.19871521,0.15802002,9.703705000000001
2018-12-13,04:28:22.875,0.18675232,0.18913269,9.749207
2018-12-13,04:28:22.877,0.18196106,0.14364624,9.828201
2018-12-13,04:28:22.878,0.1771698,0.21069336,9.868912
2018-12-13,04:28:22.955,0.16760254,0.10774231,9.876099
2018-12-13,04:28:22.957,0.13168335,0.13407898,9.873702999999999
2018-12-13,04:28:22.959,0.13407898,0.17237854,9.837784
2018-12-13,04:28:22.961,0.22744751,0.15802002,9.82103
