date,time,UE1_acc_x,UE1_acc_y,UE1_acc_z
2018-12-13,04:28:01.667,-0.92930603,1.6983185,9.55304
2018-12-13,04:28:01.672,-0.7928467,1.7940826,9.330383
2018-12-13,04:28:01.770,-0.59173584,1.9066162,9.122086
2018-12-13,04:28:01.775,-0.72340393,1.7414093000000002,8.937744
2018-12-13,04:28:01.778,-0.77130127,1.6121216,10.113296499999999
2018-12-13,04:28:01.782,-0.7449646,1.5067749,10.869858
2018-12-13,04:28:01.824,-0.75213623,1.5235290000000001,10.651993
2018-12-13,04:28:01.828,-0.50553894,1.6815491000000002,10.312012
2018-12-13,04:28:01.831,-0.27090454,1.7701416,9.665573
2018-12-13,04:28:01.834,-0.37385559999999995,1.8515471999999997,9.1532135
2018-12-13,04:28:01.893,-0.51512146,1.9281616000000001,9.17955
2018-12-13,04:28:01.897,-0.79045105,1.9113921999999999,9.169967999999999
2018-12-13,04:28:01.900,-0.9724120999999999,1.8587189,9.100539999999999
2018-12-13,04:28:01.904,-0.97480774,1.6911316000000003,9.069412
2018-12-13,04:28:01.972,-0.7018585,1.7078857,9.234619
2018-12-13,04:28:01.977,-0.41217040000000005,1.8204193,9.150818
2018-12-13,04:28:01.982,-0.48638916,1.7485962,9.483611999999999
2018-12-13,04:28:01.986,-0.51750183,1.5139618000000001,10.491577000000001
2018-12-13,04:28:02.053,-0.3379364,1.6432494999999998,9.960068
2018-12-13,04:28:02.057,-0.21104431,1.6169128000000001,9.67276
2018-12-13,04:28:02.064,-0.06021118,1.7150726000000003,10.292862
2018-12-13,04:28:02.067,-0.19668579,1.9736481,10.472427
2018-12-13,04:28:02.139,-0.40019226,1.8323822,10.115677
2018-12-13,04:28:02.143,-0.53427124,1.360733,9.723038
2018-12-13,04:28:02.147,-0.68989563,1.2290497,9.756561
2018-12-13,04:28:02.151,-0.78086853,1.2936858999999998,9.706268
2018-12-13,04:28:02.214,-0.51989746,1.1644135,9.5746
2018-12-13,04:28:02.217,-0.30682373,2.0502625,9.6631775
2018-12-13,04:28:02.221,-0.316391,2.3758698,9.402206
2018-12-13,04:28:02.224,-0.44088745,2.3351745999999998,8.870697
2018-12-13,04:28:02.298,-0.5821533,1.7773285,9.00238
2018-12-13,04:28:02.302,-1.0418396,1.0590667999999999,9.172363
2018-12-13,04:28:02.306,-1.2980194,0.86273193,8.913788
2018-12-13,04:28:02.310,-0.8670654000000001,1.1332855,8.8563385
2018-12-13,04:28:02.379,-0.87423706,1.530716,9.090973
2018-12-13,04:28:02.383,-1.0753632,1.5977631,9.682327
2018-12-13,04:28:02.386,-0.8934021000000001,1.1332855,9.404602
2018-12-13,04:28:02.390,-1.2597046,0.74302673,9.31842
2018-12-13,04:28:02.462,-2.0426178,0.8818969999999999,10.041458
2018-12-13,04:28:02.465,-2.4448395,2.0143433,10.3311615
2018-12-13,04:28:02.469,-2.1240234,2.6511993,9.708664
2018-12-13,04:28:02.472,-1.1232452,3.1108856,9.260956
2018-12-13,04:28:02.541,-0.21343994,3.0127257999999997,9.864288
2018-12-13,04:28:02.545,-0.30682373,1.9281616000000001,10.379044
2018-12-13,04:28:02.549,-0.51750183,1.2673492,10.7621155
2018-12-13,04:28:02.552,-0.38104248,1.3726958999999999,10.455658
2018-12-13,04:28:02.622,-0.15837097,1.4325562,10.699875
2018-12-13,04:28:02.626,0.22230529999999998,1.3272095,10.546646
2018-12-13,04:28:02.629,0.5000305,1.5594482,9.998367
2018-12-13,04:28:02.632,0.52397156,1.7868958,9.775711
2018-12-13,04:28:02.704,0.5503081999999999,1.9089966,9.617691
2018-12-13,04:28:02.707,0.6341095,1.9233703999999998,9.500380999999999
2018-12-13,04:28:02.710,0.72987366,1.7964783,9.620087
2018-12-13,04:28:02.713,0.7322693,1.8347778000000001,9.402206
2018-12-13,04:28:02.784,0.66282654,1.9377289,9.241806
2018-12-13,04:28:02.787,0.5766449,1.8300018,9.591353999999999
2018-12-13,04:28:02.790,0.54551697,1.7390136999999999,9.926544
2018-12-13,04:28:02.793,0.38510132,1.8659058000000002,9.708664
2018-12-13,04:28:02.866,0.13131714,1.8443604,9.284897
2018-12-13,04:28:02.870,-0.0075378419999999995,1.5857849,9.442917
2018-12-13,04:28:02.872,-0.13682556,1.3056641000000002,9.773315
2018-12-13,04:28:02.874,-0.29484558,1.3655243000000001,9.828384
2018-12-13,04:28:02.947,-0.45526123,1.2697448999999998,9.952881
2018-12-13,04:28:02.950,-0.48638916,1.2314453,10.300034
2018-12-13,04:28:02.952,-0.33076477,1.3726958999999999,10.319199000000001
2018-12-13,04:28:02.954,-0.23260498,1.4373474,10.204269
2018-12-13,04:28:03.034,-0.22062683,1.3248138,10.328766
2018-12-13,04:28:03.037,-0.23977661,1.3056641000000002,10.393417
2018-12-13,04:28:03.039,-0.21583557,1.4253693,10.139633
2018-12-13,04:28:03.041,-0.2541504,1.4373474,9.696701
2018-12-13,04:28:03.109,-0.2756958,1.3774872,9.457275
2018-12-13,04:28:03.112,-0.3044281,1.3703003,9.526717999999999
2018-12-13,04:28:03.115,-0.27809143,1.4660796999999999,9.481216
2018-12-13,04:28:03.118,-0.2876587,1.5522614,9.306442
2018-12-13,04:28:03.191,-0.2182312,1.554657,9.323196000000001
2018-12-13,04:28:03.194,-0.21583557,1.5043792999999999,9.591353999999999
2018-12-13,04:28:03.197,-0.3259735,1.4708709999999998,9.746979
2018-12-13,04:28:03.199,-0.31159973,1.5211487,9.766129
2018-12-13,04:28:03.271,-0.28288270000000004,1.499588,9.83078
2018-12-13,04:28:03.274,-0.31399536,1.4110107,9.926544
2018-12-13,04:28:03.277,-0.34272766,1.3463593,10.029494999999999
2018-12-13,04:28:03.279,-0.36427307,1.3990326000000002,10.012741
2018-12-13,04:28:03.352,-0.37625122,1.4469147,9.938507000000001
2018-12-13,04:28:03.354,-0.41934204,1.4325562,9.77092
2018-12-13,04:28:03.357,-0.43850708,1.4421386999999999,9.677551
2018-12-13,04:28:03.360,-0.40977478,1.4684753000000001,9.69191
2018-12-13,04:28:03.436,-0.39779663,1.5211487,9.646423
2018-12-13,04:28:03.439,-0.34512329999999997,1.6001433999999999,9.51474
2018-12-13,04:28:03.442,-0.30682373,1.5881805,9.509949
2018-12-13,04:28:03.446,-0.30203247,1.5211487,9.627274
2018-12-13,04:28:03.515,-0.31159973,1.5019836000000002,9.644028
2018-12-13,04:28:03.518,-0.28288270000000004,1.5618439,9.55304
2018-12-13,04:28:03.520,-0.33076477,1.5019836000000002,9.679947
2018-12-13,04:28:03.522,-0.40258790000000005,1.3415833000000001,9.895416
2018-12-13,04:28:03.607,-0.40737915,1.3511505,9.86908
2018-12-13,04:28:03.613,-0.3666687,1.4660796999999999,9.780502
2018-12-13,04:28:03.618,-0.34512329999999997,1.5402985,9.732605
2018-12-13,04:28:03.622,-0.34512329999999997,1.530716,9.775711
2018-12-13,04:28:03.678,-0.33555603,1.4349518,9.919357000000002
2018-12-13,04:28:03.681,-0.32118225,1.3942566,9.993576
2018-12-13,04:28:03.684,-0.29244995,1.4038239,9.940903
2018-12-13,04:28:03.687,-0.29484558,1.4564972,9.818802
2018-12-13,04:28:03.760,-0.3331604,1.4828339,9.814011
2018-12-13,04:28:03.766,-0.40498352,1.3966370000000001,9.924149
2018-12-13,04:28:03.771,-0.39300537,1.2841187,9.907394
2018-12-13,04:28:03.776,-0.37385559999999995,1.2793274,9.845139
2018-12-13,04:28:03.838,-0.40737915,1.2649689,9.732605
2018-12-13,04:28:03.841,-0.38821409999999995,1.2553864,9.696701
2018-12-13,04:28:03.843,-0.34512329999999997,1.3391876,9.720642
2018-12-13,04:28:03.846,-0.3259735,1.4062195,9.725433
2018-12-13,04:28:03.921,-0.31878662,1.4445343000000002,9.620087
2018-12-13,04:28:03.926,-0.2756958,1.4924164,9.521927
2018-12-13,04:28:03.931,-0.25894165,1.5139618000000001,9.509949
2018-12-13,04:28:03.935,-0.28288270000000004,1.5043792999999999,9.548264
2018-12-13,04:28:04.001,-0.31399536,1.4660796999999999,9.65361
2018-12-13,04:28:04.004,-0.36427307,1.4086151000000002,9.8211975
2018-12-13,04:28:04.007,-0.37145996,1.3870697,9.837952
2018-12-13,04:28:04.010,-0.36906433,1.4804382,9.727829
2018-12-13,04:28:04.081,-0.38821409999999995,1.5211487,9.706268
2018-12-13,04:28:04.083,-0.40977478,1.4804382,9.746979
2018-12-13,04:28:04.085,-0.4528656,1.3870697,9.904999
2018-12-13,04:28:04.087,-0.47201538,1.2721405000000001,9.998367
2018-12-13,04:28:04.164,-0.4600525,1.2553864,9.943298
2018-12-13,04:28:04.169,-0.4600525,1.3487548999999999,9.761337
2018-12-13,04:28:04.173,-0.4648285,1.4181976,9.689513999999999
2018-12-13,04:28:04.177,-0.44807434,1.4038239,9.679947
2018-12-13,04:28:04.243,-0.42413329999999994,1.3176421999999999,9.675156
2018-12-13,04:28:04.246,-0.39300537,1.2242583999999999,9.641632000000001
2018-12-13,04:28:04.248,-0.3666687,1.2003173999999999,9.639236
2018-12-13,04:28:04.251,-0.3666687,1.2410278000000001,9.732605
2018-12-13,04:28:04.327,-0.41217040000000005,1.2625732,9.804443
2018-12-13,04:28:04.331,-0.43611145,1.2697448999999998,9.840347
2018-12-13,04:28:04.335,-0.43850708,1.3439789,9.840347
2018-12-13,04:28:04.339,-0.44567870000000004,1.3870697,9.806839
2018-12-13,04:28:04.411,-0.47201538,1.3391876,9.845139
2018-12-13,04:28:04.415,-0.4887848,1.3152466,9.8211975
2018-12-13,04:28:04.420,-0.4815979,1.3080597,9.785278
2018-12-13,04:28:04.425,-0.46722412,1.3056641000000002,9.847534
2018-12-13,04:28:04.487,-0.46244812,1.2697448999999998,9.924149
2018-12-13,04:28:04.489,-0.43611145,1.2960815,9.8762665
2018-12-13,04:28:04.490,-0.42652893,1.3008728,9.814011
2018-12-13,04:28:04.492,-0.40498352,1.2913055,9.7421875
2018-12-13,04:28:04.570,-0.40977478,1.257782,9.746979
2018-12-13,04:28:04.574,-0.40977478,1.2505951000000002,9.814011
2018-12-13,04:28:04.579,-0.42652893,1.2625732,9.797255999999999
2018-12-13,04:28:04.584,-0.4648285,1.257782,9.802048
2018-12-13,04:28:04.649,-0.48399353,1.2481995000000001,9.804443
2018-12-13,04:28:04.651,-0.48638916,1.1979218,9.794861000000001
2018-12-13,04:28:04.653,-0.4528656,1.1955261000000001,9.799652
2018-12-13,04:28:04.655,-0.44088745,1.1931305,9.799652
2018-12-13,04:28:04.732,-0.43371582,1.1835632,9.802048
2018-12-13,04:28:04.735,-0.43371582,1.178772,9.864288
2018-12-13,04:28:04.739,-0.39779663,1.1931305,9.8762665
2018-12-13,04:28:04.742,-0.34512329999999997,1.2625732,9.8211975
2018-12-13,04:28:04.813,-0.31878662,1.2841187,9.739792
2018-12-13,04:28:04.817,-0.3379364,1.2434082,9.7421875
2018-12-13,04:28:04.820,-0.34033203,1.1859589,9.780502
2018-12-13,04:28:04.825,-0.37145996,1.178772,9.787674
2018-12-13,04:28:04.894,-0.37625122,1.1859589,9.802048
2018-12-13,04:28:04.897,-0.34751892,1.2098999,9.804443
2018-12-13,04:28:04.901,-0.3666687,1.2194672,9.775711
2018-12-13,04:28:04.905,-0.35710144,1.2625732,9.794861000000001
2018-12-13,04:28:04.975,-0.34512329999999997,1.2314453,9.904999
2018-12-13,04:28:04.979,-0.35949707,1.2003173999999999,9.993576
2018-12-13,04:28:04.983,-0.42173767,1.1189117,10.053436
2018-12-13,04:28:04.986,-0.395401,1.1763763,9.885834
2018-12-13,04:28:05.054,-0.34751892,1.2936858999999998,9.730225
2018-12-13,04:28:05.056,-0.3379364,1.2601776000000002,9.725433
2018-12-13,04:28:05.058,-0.34033203,1.2529907,9.785278
2018-12-13,04:28:05.061,-0.34033203,1.2410278000000001,9.797255999999999
2018-12-13,04:28:05.137,-0.34272766,1.1715851000000002,9.797255999999999
2018-12-13,04:28:05.141,-0.3331604,1.2242583999999999,9.758942
2018-12-13,04:28:05.147,-0.32118225,1.2625732,9.725433
2018-12-13,04:28:05.152,-0.38583374,1.1955261000000001,9.787674
2018-12-13,04:28:05.218,-0.44567870000000004,1.1572266000000002,9.83078
2018-12-13,04:28:05.223,-0.44567870000000004,1.233841,9.814011
2018-12-13,04:28:05.226,-0.43611145,1.2434082,9.780502
2018-12-13,04:28:05.230,-0.45765686,1.2194672,9.802048
2018-12-13,04:28:05.298,-0.48638916,1.1644135,9.857117
2018-12-13,04:28:05.300,-0.46722412,1.1859589,9.919357000000002
2018-12-13,04:28:05.301,-0.44328308,1.2505951000000002,9.914566
2018-12-13,04:28:05.303,-0.47441099999999997,1.2553864,9.866684
2018-12-13,04:28:05.380,-0.52708435,1.2194672,9.873871000000001
2018-12-13,04:28:05.384,-0.5246887,1.1189117,9.979218
2018-12-13,04:28:05.388,-0.5007477,1.0877991000000002,9.979218
2018-12-13,04:28:05.391,-0.46722412,1.1524353,9.847534
2018-12-13,04:28:05.459,-0.42652893,1.2218628,9.679947
2018-12-13,04:28:05.461,-0.44328308,1.2529907,9.646423
2018-12-13,04:28:05.463,-0.46722412,1.2266540000000001,9.720642
2018-12-13,04:28:05.466,-0.46722412,1.1715851000000002,9.811615
2018-12-13,04:28:05.543,-0.48399353,1.1284943,9.811615
2018-12-13,04:28:05.546,-0.49595642,1.147644,9.758942
2018-12-13,04:28:05.550,-0.50553894,1.1572266000000002,9.761337
2018-12-13,04:28:05.553,-0.53666687,1.1715851000000002,9.782883
2018-12-13,04:28:05.622,-0.5294800000000001,1.2194672,9.75177
2018-12-13,04:28:05.624,-0.47201538,1.2721405000000001,9.758942
2018-12-13,04:28:05.625,-0.4600525,1.2505951000000002,9.804443
2018-12-13,04:28:05.627,-0.44567870000000004,1.1835632,9.924149
2018-12-13,04:28:05.703,-0.43132020000000004,1.1596222,9.960068
2018-12-13,04:28:05.705,-0.42413329999999994,1.1763763,9.893021000000001
2018-12-13,04:28:05.707,-0.42413329999999994,1.2410278000000001,9.7421875
2018-12-13,04:28:05.708,-0.44328308,1.3056641000000002,9.622482000000002
2018-12-13,04:28:05.786,-0.47680664,1.2841187,9.699097
2018-12-13,04:28:05.791,-0.49835205,1.2218628,9.818802
2018-12-13,04:28:05.794,-0.47920227,1.2362366000000002,9.809219
2018-12-13,04:28:05.797,-0.46244812,1.2649689,9.746979
2018-12-13,04:28:05.869,-0.46244812,1.2721405000000001,9.706268
2018-12-13,04:28:05.872,-0.47441099999999997,1.2553864,9.754166
2018-12-13,04:28:05.874,-0.44088745,1.2075042999999999,9.847534
2018-12-13,04:28:05.877,-0.44807434,1.2218628,9.859497
2018-12-13,04:28:05.948,-0.44807434,1.2505951000000002,9.835556
2018-12-13,04:28:05.952,-0.41217040000000005,1.2865143,9.787674
2018-12-13,04:28:05.955,-0.40498352,1.3032683999999999,9.720642
2018-12-13,04:28:05.958,-0.42652893,1.281723,9.7421875
2018-12-13,04:28:06.030,-0.43132020000000004,1.2170715,9.864288
2018-12-13,04:28:06.033,-0.41217040000000005,1.2170715,9.890625
2018-12-13,04:28:06.036,-0.42173767,1.2697448999999998,9.761337
2018-12-13,04:28:06.039,-0.42173767,1.2697448999999998,9.699097
2018-12-13,04:28:06.108,-0.44328308,1.2481995000000001,9.744583
2018-12-13,04:28:06.110,-0.45526123,1.2386322,9.780502
2018-12-13,04:28:06.112,-0.45765686,1.2290497,9.778107
2018-12-13,04:28:06.114,-0.39779663,1.2960815,9.703888000000001
2018-12-13,04:28:06.220,-0.40737915,1.3080597,9.703888000000001
2018-12-13,04:28:06.222,-0.44567870000000004,1.2960815,9.708664
2018-12-13,04:28:06.224,-0.45765686,1.2960815,9.7421875
2018-12-13,04:28:06.225,-0.41455078,1.312851,9.773315
2018-12-13,04:28:06.276,-0.40258790000000005,1.2721405000000001,9.806839
2018-12-13,04:28:06.277,-0.41217040000000005,1.2386322,9.864288
2018-12-13,04:28:06.279,-0.41934204,1.2290497,9.8762665
2018-12-13,04:28:06.280,-0.41455078,1.2266540000000001,9.8762665
2018-12-13,04:28:06.352,-0.44328308,1.2721405000000001,9.818802
2018-12-13,04:28:06.354,-0.45046997,1.3224182,9.746979
2018-12-13,04:28:06.355,-0.44088745,1.2889099,9.782883
2018-12-13,04:28:06.356,-0.4528656,1.2362366000000002,9.811615
2018-12-13,04:28:06.435,-0.44567870000000004,1.2913055,9.7421875
2018-12-13,04:28:06.439,-0.42173767,1.3032683999999999,9.756561
2018-12-13,04:28:06.443,-0.44328308,1.2673492,9.835556
2018-12-13,04:28:06.447,-0.44328308,1.257782,9.881058
2018-12-13,04:28:06.515,-0.44088745,1.2745361000000002,9.816406
2018-12-13,04:28:06.517,-0.45526123,1.2913055,9.720642
2018-12-13,04:28:06.520,-0.45526123,1.2721405000000001,9.749374000000001
2018-12-13,04:28:06.522,-0.45526123,1.2434082,9.816406
2018-12-13,04:28:06.597,-0.43371582,1.2505951000000002,9.835556
2018-12-13,04:28:06.601,-0.44807434,1.2194672,9.9002075
2018-12-13,04:28:06.605,-0.43371582,1.2290497,9.864288
2018-12-13,04:28:06.608,-0.41934204,1.2697448999999998,9.768524000000001
2018-12-13,04:28:06.677,-0.44807434,1.2745361000000002,9.71106
2018-12-13,04:28:06.679,-0.46244812,1.2601776000000002,9.684723
2018-12-13,04:28:06.680,-0.44088745,1.281723,9.696701
2018-12-13,04:28:06.682,-0.45526123,1.2673492,9.725433
2018-12-13,04:28:06.759,-0.45526123,1.2793274,9.768524000000001
2018-12-13,04:28:06.763,-0.46722412,1.2865143,9.720642
2018-12-13,04:28:06.766,-0.43850708,1.3272095,9.677551
2018-12-13,04:28:06.769,-0.5007477,1.1835632,9.845139
2018-12-13,04:28:06.840,-0.5821533,1.0542755,10.0271
2018-12-13,04:28:06.842,-0.52708435,1.147644,9.859497
2018-12-13,04:28:06.845,-0.46961975,1.3032683999999999,9.694305
2018-12-13,04:28:06.847,-0.46961975,1.312851,9.756561
2018-12-13,04:28:06.920,-0.43132020000000004,1.2745361000000002,9.852325
2018-12-13,04:28:06.922,-0.39779663,1.2386322,9.914566
2018-12-13,04:28:06.923,-0.40258790000000005,1.2625732,9.840347
2018-12-13,04:28:06.925,-0.44088745,1.3104552999999999,9.708664
2018-12-13,04:28:07.000,-0.4815979,1.3056641000000002,9.67276
2018-12-13,04:28:07.002,-0.47441099999999997,1.2865143,9.725433
2018-12-13,04:28:07.003,-0.47441099999999997,1.178772,9.871475
2018-12-13,04:28:07.004,-0.5079345999999999,1.1021576000000002,9.883453
2018-12-13,04:28:07.082,-0.46722412,1.1907348999999998,9.814011
2018-12-13,04:28:07.083,-0.45526123,1.2649689,9.766129
2018-12-13,04:28:07.084,-0.45765686,1.281723,9.715850999999999
2018-12-13,04:28:07.088,-0.4648285,1.2745361000000002,9.684723
2018-12-13,04:28:07.117,-0.4815979,1.2673492,9.77092
2018-12-13,04:28:07.119,-0.49116516,1.2481995000000001,9.814011
2018-12-13,04:28:07.203,-0.47441099999999997,1.2697448999999998,9.811615
2018-12-13,04:28:07.204,-0.48638916,1.2194672,9.782883
2018-12-13,04:28:07.206,-0.47920227,1.1763763,9.804443
2018-12-13,04:28:07.207,-0.47441099999999997,1.1955261000000001,9.811615
2018-12-13,04:28:07.285,-0.43132020000000004,1.2410278000000001,9.778107
2018-12-13,04:28:07.287,-0.42652893,1.2410278000000001,9.797255999999999
2018-12-13,04:28:07.289,-0.43611145,1.1907348999999998,9.859497
2018-12-13,04:28:07.290,-0.41455078,1.2098999,9.814011
2018-12-13,04:28:07.367,-0.39779663,1.281723,9.727829
2018-12-13,04:28:07.370,-0.45765686,1.3056641000000002,9.706268
2018-12-13,04:28:07.373,-0.49835205,1.2290497,9.811615
2018-12-13,04:28:07.375,-0.44567870000000004,1.2051086000000002,9.840347
2018-12-13,04:28:07.448,-0.395401,1.2170715,9.833176
2018-12-13,04:28:07.450,-0.39300537,1.233841,9.840347
2018-12-13,04:28:07.453,-0.39300537,1.2529907,9.866684
2018-12-13,04:28:07.456,-0.40737915,1.2218628,9.914566
2018-12-13,04:28:07.530,-0.45765686,1.1883545,9.897812
2018-12-13,04:28:07.532,-0.47680664,1.2553864,9.737396
2018-12-13,04:28:07.534,-0.44567870000000004,1.2721405000000001,9.715850999999999
2018-12-13,04:28:07.535,-0.4600525,1.2242583999999999,9.758942
2018-12-13,04:28:07.610,-0.43611145,1.1811676000000002,9.773315
2018-12-13,04:28:07.613,-0.40737915,1.1380768,9.842742999999999
2018-12-13,04:28:07.615,-0.3666687,1.1356812,9.859497
2018-12-13,04:28:07.617,-0.3666687,1.2266540000000001,9.804443
2018-12-13,04:28:07.691,-0.37145996,1.2793274,9.696701
2018-12-13,04:28:07.694,-0.37864685,1.2266540000000001,9.746979
2018-12-13,04:28:07.696,-0.38583374,1.1955261000000001,9.806839
2018-12-13,04:28:07.698,-0.40737915,1.2434082,9.754166
2018-12-13,04:28:07.771,-0.40737915,1.2889099,9.725433
2018-12-13,04:28:07.773,-0.42173767,1.2889099,9.845139
2018-12-13,04:28:07.774,-0.42652893,1.2266540000000001,9.979218
2018-12-13,04:28:07.775,-0.39779663,1.2601776000000002,9.931335
2018-12-13,04:28:07.852,-0.4169464,1.2745361000000002,9.861892999999998
2018-12-13,04:28:07.853,-0.44807434,1.2673492,9.806839
2018-12-13,04:28:07.854,-0.4887848,1.2266540000000001,9.84993
2018-12-13,04:28:07.855,-0.4887848,1.2098999,9.883453
2018-12-13,04:28:07.933,-0.4528656,1.2242583999999999,9.914566
2018-12-13,04:28:07.935,-0.4169464,1.2410278000000001,9.866684
2018-12-13,04:28:07.936,-0.43132020000000004,1.257782,9.766129
2018-12-13,04:28:07.938,-0.42892456,1.2242583999999999,9.749374000000001
2018-12-13,04:28:08.015,-0.42413329999999994,1.1883545,9.806839
2018-12-13,04:28:08.018,-0.42173767,1.1715851000000002,9.878662
2018-12-13,04:28:08.021,-0.43371582,1.1859589,9.84993
2018-12-13,04:28:08.023,-0.43132020000000004,1.2649689,9.699097
2018-12-13,04:28:08.096,-0.44567870000000004,1.3152466,9.6129
2018-12-13,04:28:08.099,-0.45526123,1.2841187,9.69191
2018-12-13,04:28:08.101,-0.4600525,1.2146912,9.837952
2018-12-13,04:28:08.103,-0.44807434,1.2362366000000002,9.842742999999999
2018-12-13,04:28:08.178,-0.44807434,1.2865143,9.754166
2018-12-13,04:28:08.181,-0.4815979,1.3152466,9.665573
2018-12-13,04:28:08.184,-0.47441099999999997,1.2769318,9.727829
2018-12-13,04:28:08.186,-0.51512146,1.1907348999999998,9.873871000000001
2018-12-13,04:28:08.259,-0.5222931,1.2410278000000001,9.8211975
2018-12-13,04:28:08.262,-0.47920227,1.3008728,9.775711
2018-12-13,04:28:08.265,-0.44807434,1.3200226000000002,9.8211975
2018-12-13,04:28:08.268,-0.43132020000000004,1.3056641000000002,9.804443
2018-12-13,04:28:08.339,-0.41934204,1.2386322,9.859497
2018-12-13,04:28:08.341,-0.41217040000000005,1.2314453,9.845139
2018-12-13,04:28:08.344,-0.43850708,1.2745361000000002,9.782883
2018-12-13,04:28:08.346,-0.4648285,1.2481995000000001,9.727829
2018-12-13,04:28:08.422,-0.46961975,1.2721405000000001,9.706268
2018-12-13,04:28:08.425,-0.4528656,1.2697448999999998,9.703888000000001
2018-12-13,04:28:08.427,-0.44567870000000004,1.2913055,9.682327
2018-12-13,04:28:08.429,-0.45046997,1.2889099,9.703888000000001
2018-12-13,04:28:08.502,-0.4528656,1.2936858999999998,9.804443
2018-12-13,04:28:08.505,-0.45046997,1.312851,9.773315
2018-12-13,04:28:08.508,-0.45765686,1.3056641000000002,9.737396
2018-12-13,04:28:08.510,-0.4935608,1.2553864,9.816406
2018-12-13,04:28:08.581,-0.49116516,1.2625732,9.792465
2018-12-13,04:28:08.582,-0.49595642,1.3176421999999999,9.823592999999999
2018-12-13,04:28:08.583,-0.51989746,1.3200226000000002,9.802048
2018-12-13,04:28:08.584,-0.5031433,1.3176421999999999,9.809219
2018-12-13,04:28:08.664,-0.49116516,1.312851,9.79007
2018-12-13,04:28:08.666,-0.4815979,1.3343964,9.754166
2018-12-13,04:28:08.668,-0.5031433,1.2960815,9.792465
2018-12-13,04:28:08.670,-0.4815979,1.2625732,9.9002075
2018-12-13,04:28:08.748,-0.4887848,1.2697448999999998,9.893021000000001
2018-12-13,04:28:08.750,-0.5031433,1.2649689,9.84993
2018-12-13,04:28:08.752,-0.5318755999999999,1.2601776000000002,9.746979
2018-12-13,04:28:08.753,-0.5390625,1.2362366000000002,9.703888000000001
2018-12-13,04:28:08.826,-0.5246887,1.2362366000000002,9.761337
2018-12-13,04:28:08.829,-0.49835205,1.2410278000000001,9.75177
2018-12-13,04:28:08.831,-0.45765686,1.3152466,9.675156
2018-12-13,04:28:08.832,-0.43132020000000004,1.336792,9.63205
2018-12-13,04:28:08.906,-0.44567870000000004,1.2745361000000002,9.684723
2018-12-13,04:28:08.908,-0.49595642,1.2194672,9.727829
2018-12-13,04:28:08.909,-0.49595642,1.2793274,9.69191
2018-12-13,04:28:08.910,-0.4648285,1.3008728,9.761337
2018-12-13,04:28:08.988,-0.4648285,1.2936858999999998,9.837952
2018-12-13,04:28:08.990,-0.46244812,1.2984772,9.816406
2018-12-13,04:28:08.992,-0.4528656,1.3224182,9.797255999999999
2018-12-13,04:28:08.994,-0.45765686,1.3343964,9.735000999999999
2018-12-13,04:28:09.070,-0.5007477,1.3032683999999999,9.778107
2018-12-13,04:28:09.072,-0.5031433,1.2936858999999998,9.799652
2018-12-13,04:28:09.074,-0.5031433,1.3320007,9.77092
2018-12-13,04:28:09.076,-0.51272583,1.3104552999999999,9.773315
2018-12-13,04:28:09.150,-0.5079345999999999,1.3008728,9.7421875
2018-12-13,04:28:09.152,-0.49116516,1.3080597,9.754166
2018-12-13,04:28:09.153,-0.4935608,1.2721405000000001,9.8211975
2018-12-13,04:28:09.155,-0.4887848,1.2793274,9.835556
2018-12-13,04:28:09.231,-0.49116516,1.3080597,9.768524000000001
2018-12-13,04:28:09.234,-0.52708435,1.2649689,9.744583
2018-12-13,04:28:09.235,-0.5246887,1.2146912,9.75177
2018-12-13,04:28:09.237,-0.4815979,1.2314453,9.799652
2018-12-13,04:28:09.312,-0.4815979,1.2434082,9.75177
2018-12-13,04:28:09.315,-0.46244812,1.2745361000000002,9.713455
2018-12-13,04:28:09.316,-0.42173767,1.3152466,9.682327
2018-12-13,04:28:09.318,-0.43132020000000004,1.3248138,9.701492
2018-12-13,04:28:09.394,-0.43850708,1.2673492,9.806839
2018-12-13,04:28:09.396,-0.46722412,1.202713,9.940903
2018-12-13,04:28:09.398,-0.4600525,1.2410278000000001,9.919357000000002
2018-12-13,04:28:09.400,-0.46244812,1.2913055,9.825989
2018-12-13,04:28:09.474,-0.49116516,1.2865143,9.802048
2018-12-13,04:28:09.477,-0.51512146,1.257782,9.864288
2018-12-13,04:28:09.479,-0.49835205,1.2386322,9.842742999999999
2018-12-13,04:28:09.481,-0.5007477,1.2218628,9.809219
2018-12-13,04:28:09.558,-0.47920227,1.2673492,9.723038
2018-12-13,04:28:09.560,-0.43371582,1.2841187,9.677551
2018-12-13,04:28:09.562,-0.47441099999999997,1.2529907,9.667969
2018-12-13,04:28:09.564,-0.5222931,1.1715851000000002,9.723038
2018-12-13,04:28:09.566,-0.41934204,1.2481995000000001,9.761337
2018-12-13,04:28:09.659,-0.39060974,1.3463593,9.79007
2018-12-13,04:28:09.661,-0.4528656,1.2529907,9.804443
2018-12-13,04:28:09.662,-0.44567870000000004,1.1811676000000002,9.84993
2018-12-13,04:28:09.664,-0.4528656,1.2003173999999999,9.897812
2018-12-13,04:28:09.740,-0.47441099999999997,1.2913055,9.797255999999999
2018-12-13,04:28:09.743,-0.47680664,1.3511505,9.634445
2018-12-13,04:28:09.745,-0.44567870000000004,1.3463593,9.550659
2018-12-13,04:28:09.748,-0.38583374,1.2984772,9.6631775
2018-12-13,04:28:09.820,-0.37864685,1.2913055,9.787674
2018-12-13,04:28:09.823,-0.34272766,1.2913055,9.847534
2018-12-13,04:28:09.825,-0.29244995,1.2553864,9.883453
2018-12-13,04:28:09.827,-0.29244995,1.202713,9.847534
2018-12-13,04:28:09.899,-0.3044281,1.1644135,9.837952
2018-12-13,04:28:09.901,-0.33076477,1.0399017,9.91217
2018-12-13,04:28:09.903,-0.35231018,0.984848,9.907394
2018-12-13,04:28:09.905,-0.37864685,1.020752,9.873871000000001
2018-12-13,04:28:09.982,-0.41455078,1.0303345,9.816406
2018-12-13,04:28:09.985,-0.42892456,1.0255432,9.758942
2018-12-13,04:28:09.986,-0.44567870000000004,1.0375060999999999,9.766129
2018-12-13,04:28:09.988,-0.46961975,1.0638428,9.758942
2018-12-13,04:28:10.062,-0.4648285,1.0973663,9.739792
2018-12-13,04:28:10.064,-0.46961975,1.1284943,9.780502
2018-12-13,04:28:10.066,-0.44088745,1.1428528,9.802048
2018-12-13,04:28:10.068,-0.45046997,1.1165161,9.881058
2018-12-13,04:28:10.150,-0.47920227,1.0758208999999999,9.952881
2018-12-13,04:28:10.152,-0.45765686,1.0662383999999998,10.051041
2018-12-13,04:28:10.154,-0.45526123,1.0399017,10.058228
2018-12-13,04:28:10.156,-0.46961975,1.0135650999999999,9.967239
2018-12-13,04:28:10.224,-0.47201538,1.0470886000000001,9.857117
2018-12-13,04:28:10.225,-0.5222931,1.0422974,9.86908
2018-12-13,04:28:10.226,-0.5606079,1.0710297,9.787674
2018-12-13,04:28:10.227,-0.53666687,1.0949707,9.718246
2018-12-13,04:28:10.305,-0.553421,1.0399017,9.75177
2018-12-13,04:28:10.307,-0.54862976,0.99920654,9.727829
2018-12-13,04:28:10.309,-0.50553894,1.0422974,9.744583
2018-12-13,04:28:10.311,-0.47920227,1.0877991000000002,9.842742999999999
2018-12-13,04:28:10.387,-0.48638916,1.0566711000000002,9.86908
2018-12-13,04:28:10.389,-0.48399353,1.0638428,9.802048
2018-12-13,04:28:10.390,-0.46961975,1.0422974,9.749374000000001
2018-12-13,04:28:10.392,-0.49116516,1.0135650999999999,9.778107
2018-12-13,04:28:10.467,-0.51272583,0.9968109,9.86908
2018-12-13,04:28:10.469,-0.49595642,1.0016022,9.878662
2018-12-13,04:28:10.471,-0.45526123,1.0590667999999999,9.842742999999999
2018-12-13,04:28:10.472,-0.44807434,1.0614624,9.833176
2018-12-13,04:28:10.551,-0.44088745,1.068634,9.84993
2018-12-13,04:28:10.553,-0.4648285,1.0877991000000002,9.861892999999998
2018-12-13,04:28:10.555,-0.50553894,1.0542755,9.804443
2018-12-13,04:28:10.556,-0.5103302,1.0662383999999998,9.7421875
2018-12-13,04:28:10.634,-0.5222931,1.0638428,9.785278
2018-12-13,04:28:10.636,-0.53666687,1.0351257,9.828384
2018-12-13,04:28:10.638,-0.5414429000000001,1.0470886000000001,9.842742999999999
2018-12-13,04:28:10.640,-0.52708435,1.0327301,9.83078
2018-12-13,04:28:10.710,-0.5222931,1.0183563,9.881058
2018-12-13,04:28:10.712,-0.53427124,1.0016022,9.943298
2018-12-13,04:28:10.713,-0.5294800000000001,1.0111847,9.8762665
2018-12-13,04:28:10.714,-0.5510254,1.0231476000000002,9.785278
2018-12-13,04:28:10.793,-0.5582123000000001,1.0087891,9.785278
2018-12-13,04:28:10.795,-0.5941162,1.0087891,9.811615
2018-12-13,04:28:10.797,-0.56777954,1.0351257,9.732605
2018-12-13,04:28:10.799,-0.5222931,1.0901794,9.675156
2018-12-13,04:28:10.872,-0.5222931,1.0494843,9.699097
2018-12-13,04:28:10.873,-0.53427124,1.0518798999999999,9.775711
2018-12-13,04:28:10.874,-0.5246887,1.068634,9.792465
2018-12-13,04:28:10.874,-0.5606079,1.0590667999999999,9.725433
2018-12-13,04:28:10.955,-0.5510254,1.0734253,9.677551
2018-12-13,04:28:10.957,-0.5438385,1.0135650999999999,9.814011
2018-12-13,04:28:10.959,-0.60369873,0.8962555,9.943298
2018-12-13,04:28:10.960,-0.60849,0.9752655000000001,9.746979
2018-12-13,04:28:11.037,-0.58454895,1.0351257,9.651214999999999
2018-12-13,04:28:11.039,-0.6108856,0.984848,9.761337
2018-12-13,04:28:11.042,-0.59173584,0.90823364,9.926544
2018-12-13,04:28:11.044,-0.5414429000000001,0.94174194,9.8762665
2018-12-13,04:28:11.120,-0.5318755999999999,0.99201965,9.780502
2018-12-13,04:28:11.122,-0.553421,0.9752655000000001,9.773315
2018-12-13,04:28:11.124,-0.55581665,0.9752655000000001,9.792465
2018-12-13,04:28:11.127,-0.56300354,0.9465332000000001,9.825989
2018-12-13,04:28:11.198,-0.553421,0.9393463,9.864288
2018-12-13,04:28:11.201,-0.5582123000000001,0.8986511,9.84993
2018-12-13,04:28:11.203,-0.553421,0.9058379999999999,9.77092
2018-12-13,04:28:11.204,-0.54623413,0.92977905,9.782883
2018-12-13,04:28:11.277,-0.54623413,0.9608916999999999,9.816406
2018-12-13,04:28:11.280,-0.56539917,0.92977905,9.8762665
2018-12-13,04:28:11.281,-0.58454895,0.8675232,9.895416
2018-12-13,04:28:11.283,-0.6013031,0.8675232,9.859497
2018-12-13,04:28:11.360,-0.59651184,0.8866729999999999,9.837952
2018-12-13,04:28:11.362,-0.6228484999999999,0.83161926,9.878662
2018-12-13,04:28:11.364,-0.6108856,0.8268280000000001,9.904999
2018-12-13,04:28:11.366,-0.58454895,0.92259216,9.847534
2018-12-13,04:28:11.441,-0.56300354,0.9441376,9.814011
2018-12-13,04:28:11.443,-0.5582123000000001,0.92019653,9.823592999999999
2018-12-13,04:28:11.444,-0.51512146,0.9249878,9.861892999999998
2018-12-13,04:28:11.446,-0.48638916,0.94892883,9.907394
2018-12-13,04:28:11.524,-0.49835205,0.94174194,9.914566
2018-12-13,04:28:11.527,-0.49835205,0.9178009,9.924149
2018-12-13,04:28:11.528,-0.4887848,0.94892883,9.943298
2018-12-13,04:28:11.530,-0.49835205,0.984848,9.897812
2018-12-13,04:28:11.603,-0.51272583,0.97766113,9.84993
2018-12-13,04:28:11.605,-0.5246887,0.9728699000000001,9.9002075
2018-12-13,04:28:11.607,-0.54862976,0.9465332000000001,9.979218
2018-12-13,04:28:11.609,-0.50553894,0.9273834000000001,10.015121
2018-12-13,04:28:11.688,-0.42892456,0.9872284,9.950485
2018-12-13,04:28:11.690,-0.3379364,1.0087891,9.893021000000001
2018-12-13,04:28:11.692,-0.34751892,0.9178009,9.931335
2018-12-13,04:28:11.693,-0.41217040000000005,0.83639526,10.055832
2018-12-13,04:28:11.770,-0.46722412,0.9034424000000001,9.936127
2018-12-13,04:28:11.772,-0.4600525,1.1141205,9.620087
2018-12-13,04:28:11.773,-0.4935608,1.1524353,9.6033325
2018-12-13,04:28:11.775,-0.54862976,1.0279388,9.866684
2018-12-13,04:28:11.846,-0.5246887,1.0375060999999999,10.005554
2018-12-13,04:28:11.848,-0.46961975,1.1644135,9.907394
2018-12-13,04:28:11.849,-0.45046997,1.2458038,9.634445
2018-12-13,04:28:11.851,-0.45765686,1.2075042999999999,9.641632000000001
2018-12-13,04:28:11.927,-0.47680664,1.1093445,9.921753
2018-12-13,04:28:11.929,-0.45526123,1.1308899,9.902603
2018-12-13,04:28:11.931,-0.45526123,1.2553864,9.658386
2018-12-13,04:28:11.932,-0.47920227,1.2841187,9.560226
2018-12-13,04:28:12.009,-0.4887848,1.1308899,9.713455
2018-12-13,04:28:12.010,-0.4815979,1.0518798999999999,9.804443
2018-12-13,04:28:12.012,-0.44807434,1.0782166000000002,9.7421875
2018-12-13,04:28:12.013,-0.45526123,1.1524353,9.588959
2018-12-13,04:28:12.090,-0.47920227,1.1907348999999998,9.469254
2018-12-13,04:28:12.092,-0.47920227,1.1859589,9.581772
2018-12-13,04:28:12.093,-0.42892456,1.2458038,9.720642
2018-12-13,04:28:12.095,-0.42173767,1.3176421999999999,9.7421875
2018-12-13,04:28:12.171,-0.43132020000000004,1.336792,9.720642
2018-12-13,04:28:12.173,-0.44328308,1.3152466,9.797255999999999
2018-12-13,04:28:12.175,-0.47441099999999997,1.2673492,9.981613000000001
2018-12-13,04:28:12.177,-0.53666687,1.1715851000000002,10.130051
2018-12-13,04:28:12.253,-0.5606079,1.1500397,10.07019
2018-12-13,04:28:12.255,-0.58454895,1.1931305,9.888228999999999
2018-12-13,04:28:12.257,-0.6228484999999999,1.2051086000000002,9.699097
2018-12-13,04:28:12.259,-0.6372223000000001,1.2218628,9.636841
2018-12-13,04:28:12.338,-0.59173584,1.233841,9.718246
2018-12-13,04:28:12.342,-0.57736206,1.2625732,9.794861000000001
2018-12-13,04:28:12.344,-0.57736206,1.2625732,9.725433
2018-12-13,04:28:12.345,-0.51750183,1.336792,9.720642
2018-12-13,04:28:12.415,-0.4935608,1.3559417999999999,9.768524000000001
2018-12-13,04:28:12.417,-0.51750183,1.2601776000000002,9.845139
2018-12-13,04:28:12.419,-0.5438385,1.1811676000000002,9.940903
2018-12-13,04:28:12.420,-0.54623413,1.1356812,9.948089999999999
2018-12-13,04:28:12.494,-0.52708435,1.1691895,9.885834
2018-12-13,04:28:12.496,-0.53666687,1.2051086000000002,9.768524000000001
2018-12-13,04:28:12.497,-0.5821533,1.2051086000000002,9.763733
2018-12-13,04:28:12.498,-0.60849,1.1691895,9.737396
2018-12-13,04:28:12.577,-0.5941162,1.2122955,9.627274
2018-12-13,04:28:12.579,-0.59651184,1.2793274,9.536285000000001
2018-12-13,04:28:12.581,-0.5606079,1.336792,9.598541
2018-12-13,04:28:12.583,-0.53427124,1.3583374,9.670364
2018-12-13,04:28:12.657,-0.52708435,1.3439789,9.725433
2018-12-13,04:28:12.659,-0.52708435,1.2841187,9.835556
2018-12-13,04:28:12.661,-0.51989746,1.2505951000000002,9.866684
2018-12-13,04:28:12.662,-0.49835205,1.257782,9.778107
2018-12-13,04:28:12.739,-0.47920227,1.2984772,9.689513999999999
2018-12-13,04:28:12.742,-0.4815979,1.2434082,9.761337
2018-12-13,04:28:12.744,-0.47441099999999997,1.2266540000000001,9.785278
2018-12-13,04:28:12.745,-0.46961975,1.2769318,9.768524000000001
2018-12-13,04:28:12.820,-0.47680664,1.257782,9.859497
2018-12-13,04:28:12.823,-0.47201538,1.2865143,9.845139
2018-12-13,04:28:12.825,-0.46722412,1.3032683999999999,9.756561
2018-12-13,04:28:12.827,-0.51272583,1.2410278000000001,9.802048
2018-12-13,04:28:12.900,-0.5390625,1.1644135,9.8762665
2018-12-13,04:28:12.901,-0.5294800000000001,1.1979218,9.859497
2018-12-13,04:28:12.903,-0.5294800000000001,1.2051086000000002,9.811615
2018-12-13,04:28:12.904,-0.5582123000000001,1.1572266000000002,9.794861000000001
2018-12-13,04:28:12.981,-0.5079345999999999,1.1739807,9.818802
2018-12-13,04:28:12.983,-0.5294800000000001,1.1955261000000001,9.794861000000001
2018-12-13,04:28:12.984,-0.5893401999999999,1.2793274,9.617691
2018-12-13,04:28:12.985,-0.5725708,1.3176421999999999,9.6033325
2018-12-13,04:28:13.062,-0.5438385,1.257782,9.763733
2018-12-13,04:28:13.064,-0.55581665,1.1907348999999998,9.871475
2018-12-13,04:28:13.066,-0.5701752,1.178772,9.857117
2018-12-13,04:28:13.067,-0.59173584,1.178772,9.814011
2018-12-13,04:28:13.143,-0.60369873,1.1715851000000002,9.761337
2018-12-13,04:28:13.145,-0.59173584,1.2290497,9.780502
2018-12-13,04:28:13.147,-0.56777954,1.2122955,9.840347
2018-12-13,04:28:13.149,-0.55581665,1.2386322,9.907394
2018-12-13,04:28:13.307,-0.51272583,1.2936858999999998,9.842742999999999
2018-12-13,04:28:13.308,-0.5031433,1.2769318,9.794861000000001
2018-12-13,04:28:13.309,-0.5414429000000001,1.2170715,9.727829
2018-12-13,04:28:13.309,-0.5414429000000001,1.202713,9.675156
2018-12-13,04:28:13.310,-0.55581665,1.1979218,9.7421875
2018-12-13,04:28:13.311,-0.5510254,1.2098999,9.706268
2018-12-13,04:28:13.311,-0.5246887,1.2386322,9.646423
2018-12-13,04:28:13.311,-0.53427124,1.2242583999999999,9.67276
2018-12-13,04:28:13.391,-0.5390625,1.1907348999999998,9.754166
2018-12-13,04:28:13.393,-0.5318755999999999,1.1739807,9.811615
2018-12-13,04:28:13.395,-0.5510254,1.178772,9.842742999999999
2018-12-13,04:28:13.396,-0.5510254,1.1883545,9.83078
2018-12-13,04:28:13.469,-0.5246887,1.2075042999999999,9.809219
2018-12-13,04:28:13.471,-0.5414429000000001,1.2649689,9.775711
2018-12-13,04:28:13.472,-0.5725708,1.2601776000000002,9.785278
2018-12-13,04:28:13.474,-0.56777954,1.2481995000000001,9.809219
2018-12-13,04:28:13.550,-0.56539917,1.1979218,9.852325
2018-12-13,04:28:13.554,-0.54862976,1.1691895,9.833176
2018-12-13,04:28:13.555,-0.5606079,1.1859589,9.701492
2018-12-13,04:28:13.558,-0.56777954,1.2098999,9.65361
2018-12-13,04:28:13.630,-0.5510254,1.2218628,9.746979
2018-12-13,04:28:13.632,-0.60609436,1.1715851000000002,9.799652
2018-12-13,04:28:13.633,-0.61328125,1.1835632,9.701492
2018-12-13,04:28:13.633,-0.53427124,1.2505951000000002,9.694305
2018-12-13,04:28:13.713,-0.5103302,1.1979218,9.761337
2018-12-13,04:28:13.716,-0.5007477,1.1380768,9.861892999999998
2018-12-13,04:28:13.717,-0.51272583,1.1524353,9.881058
2018-12-13,04:28:13.719,-0.5103302,1.1835632,9.842742999999999
2018-12-13,04:28:13.793,-0.55581665,1.1620177999999999,9.814011
2018-12-13,04:28:13.795,-0.60609436,1.1213073999999998,9.840347
2018-12-13,04:28:13.797,-0.58454895,1.1428528,9.809219
2018-12-13,04:28:13.799,-0.5869446,1.1572266000000002,9.83078
2018-12-13,04:28:13.875,-0.57736206,1.1811676000000002,9.816406
2018-12-13,04:28:13.878,-0.5390625,1.2003173999999999,9.754166
2018-12-13,04:28:13.879,-0.5294800000000001,1.1883545,9.804443
2018-12-13,04:28:13.881,-0.5222931,1.2122955,9.79007
2018-12-13,04:28:13.961,-0.5103302,1.1955261000000001,9.8211975
2018-12-13,04:28:13.964,-0.51750183,1.1907348999999998,9.835556
2018-12-13,04:28:13.966,-0.51989746,1.178772,9.840347
2018-12-13,04:28:13.968,-0.53666687,1.1380768,9.842742999999999
2018-12-13,04:28:14.036,-0.51750183,1.1644135,9.823592999999999
2018-12-13,04:28:14.039,-0.49595642,1.1763763,9.773315
2018-12-13,04:28:14.040,-0.5031433,1.1859589,9.730225
2018-12-13,04:28:14.042,-0.48638916,1.1811676000000002,9.768524000000001
2018-12-13,04:28:14.117,-0.47920227,1.147644,9.8211975
2018-12-13,04:28:14.123,-0.46244812,1.1691895,9.799652
2018-12-13,04:28:14.125,-0.4648285,1.1883545,9.785278
2018-12-13,04:28:14.126,-0.50553894,1.178772,9.763733
2018-12-13,04:28:14.199,-0.51512146,1.1691895,9.799652
2018-12-13,04:28:14.201,-0.5318755999999999,1.1404572,9.916962
2018-12-13,04:28:14.203,-0.5222931,1.178772,9.878662
2018-12-13,04:28:14.205,-0.47201538,1.2003173999999999,9.83078
2018-12-13,04:28:14.280,-0.48638916,1.1667938,9.864288
2018-12-13,04:28:14.282,-0.51989746,1.1979218,9.761337
2018-12-13,04:28:14.284,-0.51272583,1.2362366000000002,9.675156
2018-12-13,04:28:14.286,-0.4815979,1.2218628,9.778107
2018-12-13,04:28:14.361,-0.46244812,1.2218628,9.83078
2018-12-13,04:28:14.364,-0.45046997,1.1979218,9.816406
2018-12-13,04:28:14.367,-0.44807434,1.2003173999999999,9.787674
2018-12-13,04:28:14.369,-0.4600525,1.1691895,9.782883
2018-12-13,04:28:14.443,-0.4887848,1.1284943,9.806839
2018-12-13,04:28:14.445,-0.49835205,1.0973663,9.864288
2018-12-13,04:28:14.447,-0.4600525,1.1500397,9.890625
2018-12-13,04:28:14.448,-0.4648285,1.2386322,9.782883
2018-12-13,04:28:14.524,-0.47201538,1.257782,9.687119000000001
2018-12-13,04:28:14.526,-0.4528656,1.233841,9.727829
2018-12-13,04:28:14.528,-0.42652893,1.2553864,9.720642
2018-12-13,04:28:14.530,-0.42892456,1.2721405000000001,9.665573
2018-12-13,04:28:14.605,-0.4528656,1.2410278000000001,9.725433
2018-12-13,04:28:14.607,-0.45526123,1.1859589,9.825989
2018-12-13,04:28:14.609,-0.49116516,1.1380768,9.885834
2018-12-13,04:28:14.611,-0.49835205,1.178772,9.883453
2018-12-13,04:28:14.684,-0.4887848,1.2146912,9.9002075
2018-12-13,04:28:14.685,-0.5079345999999999,1.178772,9.938507000000001
2018-12-13,04:28:14.686,-0.5007477,1.1596222,9.916962
2018-12-13,04:28:14.687,-0.5031433,1.1835632,9.859497
2018-12-13,04:28:14.766,-0.51750183,1.2170715,9.773315
2018-12-13,04:28:14.769,-0.53666687,1.2362366000000002,9.739792
2018-12-13,04:28:14.770,-0.5701752,1.1620177999999999,9.833176
2018-12-13,04:28:14.772,-0.5438385,1.1452483999999998,9.871475
2018-12-13,04:28:14.847,-0.5079345999999999,1.1907348999999998,9.768524000000001
2018-12-13,04:28:14.849,-0.5222931,1.2793274,9.655991
2018-12-13,04:28:14.851,-0.5318755999999999,1.2769318,9.703888000000001
2018-12-13,04:28:14.852,-0.5510254,1.1644135,9.91217
2018-12-13,04:28:14.928,-0.56539917,1.1165161,9.936127
2018-12-13,04:28:14.930,-0.5318755999999999,1.1955261000000001,9.766129
2018-12-13,04:28:14.932,-0.5103302,1.2481995000000001,9.703888000000001
2018-12-13,04:28:14.933,-0.5079345999999999,1.2314453,9.758942
2018-12-13,04:28:15.013,-0.5007477,1.233841,9.794861000000001
2018-12-13,04:28:15.015,-0.4815979,1.2434082,9.802048
2018-12-13,04:28:15.017,-0.4815979,1.2194672,9.804443
2018-12-13,04:28:15.019,-0.51989746,1.1883545,9.797255999999999
2018-12-13,04:28:15.092,-0.51512146,1.2122955,9.754166
2018-12-13,04:28:15.093,-0.50553894,1.2721405000000001,9.703888000000001
2018-12-13,04:28:15.094,-0.55581665,1.2410278000000001,9.737396
2018-12-13,04:28:15.094,-0.5797576999999999,1.2170715,9.746979
2018-12-13,04:28:15.171,-0.59173584,1.1883545,9.828384
2018-12-13,04:28:15.173,-0.51989746,1.2098999,9.878662
2018-12-13,04:28:15.175,-0.49116516,1.2410278000000001,9.852325
2018-12-13,04:28:15.176,-0.47920227,1.2697448999999998,9.802048
2018-12-13,04:28:15.253,-0.48399353,1.2913055,9.7421875
2018-12-13,04:28:15.255,-0.49116516,1.2529907,9.732605
2018-12-13,04:28:15.256,-0.48638916,1.2218628,9.725433
2018-12-13,04:28:15.258,-0.49595642,1.2051086000000002,9.737396
2018-12-13,04:28:15.333,-0.48399353,1.233841,9.775711
2018-12-13,04:28:15.334,-0.46722412,1.2673492,9.754166
2018-12-13,04:28:15.335,-0.44088745,1.2769318,9.787674
2018-12-13,04:28:15.335,-0.43850708,1.2649689,9.837952
2018-12-13,04:28:15.415,-0.41217040000000005,1.2769318,9.802048
2018-12-13,04:28:15.417,-0.39060974,1.3104552999999999,9.703888000000001
2018-12-13,04:28:15.419,-0.41217040000000005,1.3248138,9.684723
2018-12-13,04:28:15.421,-0.41455078,1.3104552999999999,9.749374000000001
2018-12-13,04:28:15.497,-0.44567870000000004,1.2865143,9.758942
2018-12-13,04:28:15.499,-0.4528656,1.2865143,9.744583
2018-12-13,04:28:15.501,-0.50553894,1.2218628,9.773315
2018-12-13,04:28:15.502,-0.5725708,1.1907348999999998,9.732605
2018-12-13,04:28:15.580,-0.5414429000000001,1.2769318,9.641632000000001
2018-12-13,04:28:15.582,-0.50553894,1.3224182,9.718246
2018-12-13,04:28:15.584,-0.48638916,1.2529907,9.842742999999999
2018-12-13,04:28:15.586,-0.44807434,1.2434082,9.833176
2018-12-13,04:28:15.659,-0.44328308,1.2673492,9.768524000000001
2018-12-13,04:28:15.661,-0.45765686,1.312851,9.718246
2018-12-13,04:28:15.663,-0.47680664,1.3439789,9.703888000000001
2018-12-13,04:28:15.664,-0.47680664,1.3535461000000002,9.794861000000001
2018-12-13,04:28:15.740,-0.47441099999999997,1.312851,9.895416
2018-12-13,04:28:15.743,-0.4935608,1.2314453,9.907394
2018-12-13,04:28:15.745,-0.4815979,1.2745361000000002,9.837952
2018-12-13,04:28:15.746,-0.5031433,1.3343964,9.799652
2018-12-13,04:28:15.821,-0.51512146,1.3296051000000002,9.835556
2018-12-13,04:28:15.823,-0.5246887,1.2625732,9.881058
2018-12-13,04:28:15.825,-0.52708435,1.2314453,9.888228999999999
2018-12-13,04:28:15.827,-0.5246887,1.2553864,9.756561
2018-12-13,04:28:15.902,-0.5390625,1.3152466,9.600937
2018-12-13,04:28:15.904,-0.5390625,1.3056641000000002,9.622482000000002
2018-12-13,04:28:15.905,-0.5318755999999999,1.2314453,9.720642
2018-12-13,04:28:15.907,-0.47680664,1.2649689,9.720642
2018-12-13,04:28:15.982,-0.44088745,1.2793274,9.730225
2018-12-13,04:28:15.985,-0.45765686,1.2553864,9.780502
2018-12-13,04:28:15.987,-0.4648285,1.2266540000000001,9.837952
2018-12-13,04:28:15.989,-0.4648285,1.2601776000000002,9.811615
2018-12-13,04:28:16.064,-0.44328308,1.3152466,9.758942
2018-12-13,04:28:16.067,-0.43611145,1.3463593,9.725433
2018-12-13,04:28:16.068,-0.48638916,1.3200226000000002,9.754166
2018-12-13,04:28:16.070,-0.48399353,1.3008728,9.746979
2018-12-13,04:28:16.144,-0.4528656,1.3176421999999999,9.754166
2018-12-13,04:28:16.147,-0.53427124,1.2673492,9.768524000000001
2018-12-13,04:28:16.149,-0.5701752,1.2458038,9.718246
2018-12-13,04:28:16.150,-0.52708435,1.2601776000000002,9.758942
2018-12-13,04:28:16.226,-0.51272583,1.2434082,9.864288
2018-12-13,04:28:16.229,-0.46722412,1.2481995000000001,9.823592999999999
2018-12-13,04:28:16.230,-0.42413329999999994,1.2673492,9.79007
2018-12-13,04:28:16.232,-0.42173767,1.2362366000000002,9.833176
2018-12-13,04:28:16.306,-0.42173767,1.2625732,9.83078
2018-12-13,04:28:16.309,-0.42892456,1.3032683999999999,9.773315
2018-12-13,04:28:16.310,-0.41455078,1.3296051000000002,9.732605
2018-12-13,04:28:16.311,-0.43850708,1.2889099,9.754166
2018-12-13,04:28:16.388,-0.4815979,1.2625732,9.773315
2018-12-13,04:28:16.389,-0.46722412,1.2841187,9.792465
2018-12-13,04:28:16.390,-0.45765686,1.2505951000000002,9.837952
2018-12-13,04:28:16.391,-0.43850708,1.2601776000000002,9.768524000000001
2018-12-13,04:28:16.470,-0.44088745,1.2721405000000001,9.773315
2018-12-13,04:28:16.472,-0.44328308,1.281723,9.756561
2018-12-13,04:28:16.476,-0.46244812,1.2601776000000002,9.761337
2018-12-13,04:28:16.478,-0.46722412,1.2553864,9.792465
2018-12-13,04:28:16.550,-0.4600525,1.2505951000000002,9.782883
2018-12-13,04:28:16.552,-0.4528656,1.2721405000000001,9.766129
2018-12-13,04:28:16.555,-0.44088745,1.281723,9.778107
2018-12-13,04:28:16.556,-0.42892456,1.2481995000000001,9.806839
2018-12-13,04:28:16.632,-0.41455078,1.2386322,9.8211975
2018-12-13,04:28:16.635,-0.39300537,1.2721405000000001,9.797255999999999
2018-12-13,04:28:16.636,-0.41217040000000005,1.2721405000000001,9.79007
2018-12-13,04:28:16.638,-0.42173767,1.2697448999999998,9.809219
2018-12-13,04:28:16.713,-0.42413329999999994,1.3032683999999999,9.732605
2018-12-13,04:28:16.715,-0.41217040000000005,1.2936858999999998,9.696701
2018-12-13,04:28:16.718,-0.41934204,1.2697448999999998,9.754166
2018-12-13,04:28:16.721,-0.4169464,1.2290497,9.847534
2018-12-13,04:28:16.793,-0.39779663,1.2529907,9.878662
2018-12-13,04:28:16.795,-0.42892456,1.3056641000000002,9.75177
2018-12-13,04:28:16.797,-0.43371582,1.3296051000000002,9.629653999999999
2018-12-13,04:28:16.798,-0.41934204,1.2793274,9.732605
2018-12-13,04:28:16.874,-0.41934204,1.2625732,9.842742999999999
2018-12-13,04:28:16.876,-0.39300537,1.2889099,9.840347
2018-12-13,04:28:16.878,-0.39300537,1.2913055,9.823592999999999
2018-12-13,04:28:16.880,-0.40498352,1.3080597,9.859497
2018-12-13,04:28:16.956,-0.42892456,1.2960815,9.861892999999998
2018-12-13,04:28:16.958,-0.4528656,1.2673492,9.833176
2018-12-13,04:28:16.960,-0.4600525,1.2913055,9.833176
2018-12-13,04:28:16.962,-0.46961975,1.3104552999999999,9.775711
2018-12-13,04:28:17.037,-0.4528656,1.3080597,9.744583
2018-12-13,04:28:17.039,-0.44088745,1.3008728,9.782883
2018-12-13,04:28:17.040,-0.45526123,1.312851,9.797255999999999
2018-12-13,04:28:17.043,-0.44807434,1.3224182,9.75177
2018-12-13,04:28:17.117,-0.4528656,1.3200226000000002,9.775711
2018-12-13,04:28:17.176,-0.47920227,1.3008728,9.825989
2018-12-13,04:28:17.178,-0.45526123,1.3008728,9.816406
2018-12-13,04:28:17.180,-0.42652893,1.2889099,9.816406
2018-12-13,04:28:17.199,-0.43611145,1.2673492,9.825989
2018-12-13,04:28:17.201,-0.44088745,1.3008728,9.785278
2018-12-13,04:28:17.203,-0.43611145,1.3008728,9.730225
2018-12-13,04:28:17.204,-0.43371582,1.2960815,9.727829
2018-12-13,04:28:17.280,-0.41455078,1.2936858999999998,9.732605
2018-12-13,04:28:17.283,-0.43611145,1.2865143,9.754166
2018-12-13,04:28:17.284,-0.44328308,1.2865143,9.761337
2018-12-13,04:28:17.286,-0.44328308,1.2889099,9.7421875
2018-12-13,04:28:17.362,-0.44328308,1.3080597,9.756561
2018-12-13,04:28:17.364,-0.4600525,1.2865143,9.797255999999999
2018-12-13,04:28:17.365,-0.47441099999999997,1.2673492,9.806839
2018-12-13,04:28:17.367,-0.44567870000000004,1.2865143,9.780502
2018-12-13,04:28:17.442,-0.47441099999999997,1.257782,9.804443
2018-12-13,04:28:17.443,-0.51750183,1.281723,9.725433
2018-12-13,04:28:17.444,-0.47680664,1.3272095,9.65361
2018-12-13,04:28:17.446,-0.47441099999999997,1.3391876,9.715850999999999
2018-12-13,04:28:17.523,-0.47441099999999997,1.3080597,9.773315
2018-12-13,04:28:17.525,-0.45046997,1.281723,9.806839
2018-12-13,04:28:17.526,-0.40977478,1.2889099,9.782883
2018-12-13,04:28:17.528,-0.41934204,1.3272095,9.780502
2018-12-13,04:28:17.605,-0.46722412,1.2865143,9.811615
2018-12-13,04:28:17.607,-0.5031433,1.2314453,9.885834
2018-12-13,04:28:17.609,-0.49835205,1.233841,9.823592999999999
2018-12-13,04:28:17.611,-0.47920227,1.2865143,9.718246
2018-12-13,04:28:17.684,-0.4648285,1.3463593,9.708664
2018-12-13,04:28:17.685,-0.4600525,1.3415833000000001,9.792465
2018-12-13,04:28:17.686,-0.48638916,1.2936858999999998,9.84993
2018-12-13,04:28:17.687,-0.5318755999999999,1.3032683999999999,9.825989
2018-12-13,04:28:17.766,-0.51512146,1.3008728,9.758942
2018-12-13,04:28:17.769,-0.5318755999999999,1.2601776000000002,9.746979
2018-12-13,04:28:17.770,-0.5103302,1.2434082,9.754166
2018-12-13,04:28:17.772,-0.49835205,1.2458038,9.749374000000001
2018-12-13,04:28:17.850,-0.49835205,1.2290497,9.804443
2018-12-13,04:28:17.852,-0.46722412,1.202713,9.83078
2018-12-13,04:28:17.854,-0.44567870000000004,1.2266540000000001,9.735000999999999
2018-12-13,04:28:17.855,-0.44807434,1.2194672,9.696701
2018-12-13,04:28:17.929,-0.46244812,1.2194672,9.687119000000001
2018-12-13,04:28:17.931,-0.45046997,1.2601776000000002,9.696701
2018-12-13,04:28:17.932,-0.45526123,1.2601776000000002,9.696701
2018-12-13,04:28:17.934,-0.46244812,1.3080597,9.69191
2018-12-13,04:28:18.010,-0.46961975,1.3032683999999999,9.746979
2018-12-13,04:28:18.012,-0.48399353,1.2673492,9.785278
2018-12-13,04:28:18.013,-0.46244812,1.360733,9.739792
2018-12-13,04:28:18.015,-0.46961975,1.3320007,9.866684
2018-12-13,04:28:18.090,-0.5414429000000001,1.2362366000000002,9.943298
2018-12-13,04:28:18.092,-0.5438385,1.2481995000000001,9.866684
2018-12-13,04:28:18.092,-0.5079345999999999,1.2721405000000001,9.885834
2018-12-13,04:28:18.093,-0.5079345999999999,1.2553864,9.919357000000002
2018-12-13,04:28:18.171,-0.47680664,1.2865143,9.861892999999998
2018-12-13,04:28:18.172,-0.42892456,1.3032683999999999,9.773315
2018-12-13,04:28:18.172,-0.44567870000000004,1.3056641000000002,9.687119000000001
2018-12-13,04:28:18.173,-0.4935608,1.3104552999999999,9.605713
2018-12-13,04:28:18.254,-0.49595642,1.2793274,9.6129
2018-12-13,04:28:18.256,-0.4887848,1.2745361000000002,9.6631775
2018-12-13,04:28:18.257,-0.5103302,1.2410278000000001,9.737396
2018-12-13,04:28:18.259,-0.49116516,1.2434082,9.718246
2018-12-13,04:28:18.334,-0.47441099999999997,1.2769318,9.713455
2018-12-13,04:28:18.336,-0.48399353,1.2673492,9.749374000000001
2018-12-13,04:28:18.338,-0.49116516,1.257782,9.799652
2018-12-13,04:28:18.339,-0.5007477,1.257782,9.835556
2018-12-13,04:28:18.419,-0.5318755999999999,1.233841,9.878662
2018-12-13,04:28:18.421,-0.5318755999999999,1.2649689,9.797255999999999
2018-12-13,04:28:18.423,-0.53427124,1.281723,9.708664
2018-12-13,04:28:18.425,-0.54862976,1.257782,9.725433
2018-12-13,04:28:18.497,-0.5414429000000001,1.2601776000000002,9.780502
2018-12-13,04:28:18.499,-0.5222931,1.2793274,9.758942
2018-12-13,04:28:18.501,-0.52708435,1.3032683999999999,9.775711
2018-12-13,04:28:18.502,-0.5222931,1.336792,9.792465
2018-12-13,04:28:18.578,-0.51272583,1.3296051000000002,9.842742999999999
2018-12-13,04:28:18.580,-0.5294800000000001,1.3415833000000001,9.866684
2018-12-13,04:28:18.582,-0.5246887,1.336792,9.859497
2018-12-13,04:28:18.584,-0.5294800000000001,1.336792,9.845139
2018-12-13,04:28:18.659,-0.5414429000000001,1.3152466,9.845139
2018-12-13,04:28:18.660,-0.5438385,1.3104552999999999,9.768524000000001
2018-12-13,04:28:18.661,-0.53427124,1.2865143,9.725433
2018-12-13,04:28:18.662,-0.56539917,1.1931305,9.792465
2018-12-13,04:28:18.741,-0.59651184,1.1667938,9.773315
2018-12-13,04:28:18.743,-0.58454895,1.2242583999999999,9.651214999999999
2018-12-13,04:28:18.744,-0.50553894,1.2553864,9.63205
2018-12-13,04:28:18.746,-0.4600525,1.2505951000000002,9.703888000000001
2018-12-13,04:28:18.823,-0.41455078,1.2266540000000001,9.775711
2018-12-13,04:28:18.825,-0.39300537,1.2601776000000002,9.768524000000001
2018-12-13,04:28:18.826,-0.42173767,1.3056641000000002,9.754166
2018-12-13,04:28:18.828,-0.45765686,1.3343964,9.708664
2018-12-13,04:28:18.901,-0.4648285,1.3343964,9.689513999999999
2018-12-13,04:28:18.903,-0.45765686,1.3152466,9.785278
2018-12-13,04:28:18.904,-0.47920227,1.2697448999999998,9.8762665
2018-12-13,04:28:18.905,-0.48638916,1.2673492,9.885834
2018-12-13,04:28:18.983,-0.47920227,1.2625732,9.8762665
2018-12-13,04:28:18.985,-0.4935608,1.2625732,9.845139
2018-12-13,04:28:18.987,-0.51750183,1.2266540000000001,9.823592999999999
2018-12-13,04:28:18.988,-0.5007477,1.2170715,9.799652
2018-12-13,04:28:19.064,-0.47920227,1.2529907,9.756561
2018-12-13,04:28:19.065,-0.46722412,1.2649689,9.71106
2018-12-13,04:28:19.066,-0.45046997,1.2553864,9.684723
2018-12-13,04:28:19.067,-0.42652893,1.2769318,9.65361
2018-12-13,04:28:19.145,-0.42413329999999994,1.281723,9.63205
2018-12-13,04:28:19.147,-0.40019226,1.2434082,9.69191
2018-12-13,04:28:19.149,-0.40498352,1.2098999,9.720642
2018-12-13,04:28:19.150,-0.40977478,1.2266540000000001,9.792465
2018-12-13,04:28:19.226,-0.395401,1.2434082,9.883453
2018-12-13,04:28:19.228,-0.42892456,1.2314453,9.895416
2018-12-13,04:28:19.230,-0.44567870000000004,1.2218628,9.86908
2018-12-13,04:28:19.231,-0.45046997,1.2553864,9.818802
2018-12-13,04:28:19.308,-0.43850708,1.2793274,9.780502
2018-12-13,04:28:19.310,-0.4528656,1.2984772,9.773315
2018-12-13,04:28:19.311,-0.46961975,1.2841187,9.83078
2018-12-13,04:28:19.313,-0.44088745,1.2745361000000002,9.835556
2018-12-13,04:28:19.390,-0.41455078,1.2434082,9.802048
2018-12-13,04:28:19.392,-0.46961975,1.2434082,9.761337
2018-12-13,04:28:19.393,-0.4815979,1.2218628,9.701492
2018-12-13,04:28:19.395,-0.44807434,1.1955261000000001,9.799652
2018-12-13,04:28:19.472,-0.42892456,1.1596222,9.883453
2018-12-13,04:28:19.474,-0.37145996,1.2290497,9.802048
2018-12-13,04:28:19.475,-0.35710144,1.257782,9.71106
2018-12-13,04:28:19.477,-0.39060974,1.2122955,9.785278
2018-12-13,04:28:19.551,-0.37625122,1.2098999,9.845139
2018-12-13,04:28:19.553,-0.3666687,1.2625732,9.756561
2018-12-13,04:28:19.554,-0.37145996,1.2721405000000001,9.71106
2018-12-13,04:28:19.556,-0.41934204,1.1835632,9.861892999999998
2018-12-13,04:28:19.632,-0.40737915,1.178772,9.8762665
2018-12-13,04:28:19.634,-0.40019226,1.233841,9.835556
2018-12-13,04:28:19.635,-0.4169464,1.2481995000000001,9.809219
2018-12-13,04:28:19.637,-0.41217040000000005,1.2601776000000002,9.806839
2018-12-13,04:28:19.713,-0.40977478,1.2386322,9.828384
2018-12-13,04:28:19.715,-0.41455078,1.2529907,9.775711
2018-12-13,04:28:19.717,-0.42173767,1.2481995000000001,9.7421875
2018-12-13,04:28:19.719,-0.4169464,1.233841,9.756561
2018-12-13,04:28:19.794,-0.42173767,1.2194672,9.782883
2018-12-13,04:28:19.796,-0.42652893,1.2098999,9.83078
2018-12-13,04:28:19.798,-0.40977478,1.2146912,9.871475
2018-12-13,04:28:19.799,-0.41217040000000005,1.2290497,9.859497
2018-12-13,04:28:19.875,-0.40977478,1.2386322,9.84993
2018-12-13,04:28:19.878,-0.40258790000000005,1.2481995000000001,9.840347
2018-12-13,04:28:19.881,-0.43132020000000004,1.2673492,9.833176
2018-12-13,04:28:19.883,-0.43850708,1.2290497,9.816406
2018-12-13,04:28:19.956,-0.44807434,1.2146912,9.811615
2018-12-13,04:28:19.959,-0.43132020000000004,1.2410278000000001,9.77092
2018-12-13,04:28:19.961,-0.4169464,1.2649689,9.727829
2018-12-13,04:28:19.962,-0.42892456,1.2889099,9.701492
2018-12-13,04:28:20.041,-0.42413329999999994,1.3056641000000002,9.732605
2018-12-13,04:28:20.044,-0.40258790000000005,1.2697448999999998,9.8211975
2018-12-13,04:28:20.046,-0.44807434,1.202713,9.893021000000001
2018-12-13,04:28:20.048,-0.45765686,1.2505951000000002,9.754166
2018-12-13,04:28:20.118,-0.43371582,1.3008728,9.687119000000001
2018-12-13,04:28:20.121,-0.42173767,1.2553864,9.773315
2018-12-13,04:28:20.124,-0.41455078,1.2529907,9.816406
2018-12-13,04:28:20.125,-0.39779663,1.2601776000000002,9.794861000000001
2018-12-13,04:28:20.200,-0.395401,1.2697448999999998,9.780502
2018-12-13,04:28:20.202,-0.42652893,1.2553864,9.778107
2018-12-13,04:28:20.204,-0.4648285,1.2721405000000001,9.780502
2018-12-13,04:28:20.205,-0.45765686,1.2841187,9.768524000000001
2018-12-13,04:28:20.352,-0.44567870000000004,1.2936858999999998,9.780502
2018-12-13,04:28:20.353,-0.46244812,1.281723,9.773315
2018-12-13,04:28:20.354,-0.45765686,1.3080597,9.782883
2018-12-13,04:28:20.354,-0.45046997,1.3104552999999999,9.814011
2018-12-13,04:28:20.365,-0.4528656,1.3104552999999999,9.857117
2018-12-13,04:28:20.366,-0.4648285,1.3200226000000002,9.8211975
2018-12-13,04:28:20.366,-0.4815979,1.3032683999999999,9.79007
2018-12-13,04:28:20.367,-0.4887848,1.2913055,9.8211975
2018-12-13,04:28:20.442,-0.4648285,1.2841187,9.806839
2018-12-13,04:28:20.444,-0.45765686,1.3056641000000002,9.723038
2018-12-13,04:28:20.446,-0.4600525,1.2960815,9.689513999999999
2018-12-13,04:28:20.448,-0.4528656,1.3008728,9.689513999999999
2018-12-13,04:28:20.524,-0.44328308,1.2865143,9.658386
2018-12-13,04:28:20.526,-0.44567870000000004,1.2984772,9.687119000000001
2018-12-13,04:28:20.528,-0.48638916,1.2146912,9.785278
2018-12-13,04:28:20.529,-0.5079345999999999,1.202713,9.881058
2018-12-13,04:28:20.605,-0.5031433,1.2505951000000002,9.8211975
2018-12-13,04:28:20.608,-0.51750183,1.281723,9.763733
2018-12-13,04:28:20.609,-0.52708435,1.2769318,9.778107
2018-12-13,04:28:20.610,-0.5103302,1.257782,9.837952
2018-12-13,04:28:20.685,-0.5246887,1.2793274,9.773315
2018-12-13,04:28:20.688,-0.49595642,1.3511505,9.679947
2018-12-13,04:28:20.689,-0.47201538,1.3272095,9.732605
2018-12-13,04:28:20.691,-0.5414429000000001,1.2936858999999998,9.730225
2018-12-13,04:28:20.767,-0.5390625,1.2697448999999998,9.636841
2018-12-13,04:28:20.769,-0.5079345999999999,1.2481995000000001,9.670364
2018-12-13,04:28:20.770,-0.49595642,1.2170715,9.732605
2018-12-13,04:28:20.772,-0.4648285,1.2098999,9.746979
2018-12-13,04:28:20.849,-0.43132020000000004,1.2529907,9.725433
2018-12-13,04:28:20.851,-0.43371582,1.2936858999999998,9.69191
2018-12-13,04:28:20.852,-0.44328308,1.3056641000000002,9.629653999999999
2018-12-13,04:28:20.854,-0.44567870000000004,1.3248138,9.579376
2018-12-13,04:28:20.929,-0.45765686,1.2410278000000001,9.75177
2018-12-13,04:28:20.931,-0.4815979,1.147644,9.979218
2018-12-13,04:28:20.933,-0.50553894,1.2146912,9.950485
2018-12-13,04:28:20.934,-0.5318755999999999,1.2673492,9.893021000000001
2018-12-13,04:28:21.010,-0.52708435,1.2601776000000002,9.928939999999999
2018-12-13,04:28:21.013,-0.51512146,1.2721405000000001,9.952881
2018-12-13,04:28:21.014,-0.49835205,1.2984772,9.883453
2018-12-13,04:28:21.015,-0.49595642,1.3200226000000002,9.763733
2018-12-13,04:28:21.093,-0.49835205,1.3176421999999999,9.689513999999999
2018-12-13,04:28:21.095,-0.48638916,1.3080597,9.670364
2018-12-13,04:28:21.098,-0.4887848,1.2697448999999998,9.699097
2018-12-13,04:28:21.099,-0.47920227,1.2314453,9.725433
2018-12-13,04:28:21.176,-0.44328308,1.2218628,9.725433
2018-12-13,04:28:21.180,-0.43132020000000004,1.2051086000000002,9.775711
2018-12-13,04:28:21.182,-0.39300537,1.2146912,9.809219
2018-12-13,04:28:21.185,-0.41455078,1.2505951000000002,9.785278
2018-12-13,04:28:21.254,-0.43132020000000004,1.2721405000000001,9.79007
2018-12-13,04:28:21.256,-0.47201538,1.2769318,9.766129
2018-12-13,04:28:21.258,-0.5079345999999999,1.2721405000000001,9.75177
2018-12-13,04:28:21.261,-0.51272583,1.281723,9.75177
2018-12-13,04:28:21.335,-0.51272583,1.2481995000000001,9.754166
2018-12-13,04:28:21.338,-0.51750183,1.2434082,9.806839
2018-12-13,04:28:21.341,-0.49835205,1.2721405000000001,9.811615
2018-12-13,04:28:21.343,-0.47201538,1.2769318,9.840347
2018-12-13,04:28:21.416,-0.5103302,1.2529907,9.823592999999999
2018-12-13,04:28:21.418,-0.5510254,1.2290497,9.730225
2018-12-13,04:28:21.420,-0.5031433,1.233841,9.744583
2018-12-13,04:28:21.421,-0.45046997,1.2362366000000002,9.814011
2018-12-13,04:28:21.497,-0.4169464,1.2841187,9.921753
2018-12-13,04:28:21.499,-0.40258790000000005,1.2601776000000002,10.017517
2018-12-13,04:28:21.501,-0.39779663,1.2194672,9.981613000000001
2018-12-13,04:28:21.503,-0.41934204,1.1979218,9.816406
2018-12-13,04:28:21.578,-0.4815979,1.2290497,9.658386
2018-12-13,04:28:21.580,-0.5294800000000001,1.2290497,9.588959
2018-12-13,04:28:21.581,-0.51989746,1.2434082,9.5841675
2018-12-13,04:28:21.583,-0.5007477,1.2793274,9.591353999999999
2018-12-13,04:28:21.659,-0.46961975,1.2889099,9.644028
2018-12-13,04:28:21.662,-0.44328308,1.2481995000000001,9.778107
2018-12-13,04:28:21.664,-0.43850708,1.1763763,9.9002075
2018-12-13,04:28:21.666,-0.4528656,1.1332855,9.976822
2018-12-13,04:28:21.741,-0.45526123,1.2122955,9.893021000000001
2018-12-13,04:28:21.743,-0.46722412,1.2865143,9.77092
2018-12-13,04:28:21.745,-0.46244812,1.3056641000000002,9.684723
2018-12-13,04:28:21.746,-0.46961975,1.2314453,9.756561
2018-12-13,04:28:21.821,-0.4528656,1.2098999,9.804443
2018-12-13,04:28:21.823,-0.40498352,1.2362366000000002,9.794861000000001
2018-12-13,04:28:21.825,-0.39779663,1.2458038,9.773315
2018-12-13,04:28:21.827,-0.40498352,1.2314453,9.828384
2018-12-13,04:28:21.902,-0.37625122,1.2386322,9.8762665
2018-12-13,04:28:21.904,-0.3618927,1.2458038,9.840347
2018-12-13,04:28:21.906,-0.35949707,1.2410278000000001,9.804443
2018-12-13,04:28:21.907,-0.37145996,1.1979218,9.8762665
2018-12-13,04:28:21.983,-0.39060974,1.1691895,9.873871000000001
2018-12-13,04:28:21.985,-0.39300537,1.2266540000000001,9.787674
2018-12-13,04:28:21.987,-0.41455078,1.2553864,9.739792
2018-12-13,04:28:21.989,-0.42413329999999994,1.2649689,9.732605
2018-12-13,04:28:22.064,-0.38104248,1.2625732,9.766129
2018-12-13,04:28:22.066,-0.3834381,1.2649689,9.792465
2018-12-13,04:28:22.068,-0.43850708,1.257782,9.723038
2018-12-13,04:28:22.069,-0.43371582,1.2913055,9.670364
2018-12-13,04:28:22.146,-0.40977478,1.2625732,9.75177
2018-12-13,04:28:22.148,-0.38821409999999995,1.2314453,9.84993
2018-12-13,04:28:22.150,-0.3834381,1.1859589,9.885834
2018-12-13,04:28:22.151,-0.38104248,1.1620177999999999,9.928939999999999
2018-12-13,04:28:22.227,-0.39060974,1.1763763,9.873871000000001
2018-12-13,04:28:22.228,-0.45526123,1.1955261000000001,9.816406
2018-12-13,04:28:22.229,-0.4648285,1.1883545,9.809219
2018-12-13,04:28:22.231,-0.4815979,1.2003173999999999,9.775711
2018-12-13,04:28:22.321,-0.47680664,1.2146912,9.756561
2018-12-13,04:28:22.321,-0.46244812,1.233841,9.687119000000001
2018-12-13,04:28:22.322,-0.43132020000000004,1.2865143,9.703888000000001
2018-12-13,04:28:22.322,-0.42413329999999994,1.2769318,9.782883
2018-12-13,04:28:22.388,-0.42413329999999994,1.2362366000000002,9.847534
2018-12-13,04:28:22.389,-0.40737915,1.233841,9.881058
2018-12-13,04:28:22.389,-0.41934204,1.2553864,9.878662
2018-12-13,04:28:22.390,-0.43611145,1.2218628,9.907394
2018-12-13,04:28:22.470,-0.43132020000000004,1.2290497,9.890625
2018-12-13,04:28:22.472,-0.43611145,1.2434082,9.818802
2018-12-13,04:28:22.473,-0.44088745,1.2481995000000001,9.715850999999999
2018-12-13,04:28:22.475,-0.4528656,1.281723,9.703888000000001
2018-12-13,04:28:22.551,-0.4648285,1.2721405000000001,9.703888000000001
2018-12-13,04:28:22.553,-0.45765686,1.2266540000000001,9.708664
2018-12-13,04:28:22.554,-0.45765686,1.2098999,9.761337
2018-12-13,04:28:22.555,-0.4169464,1.2505951000000002,9.718246
2018-12-13,04:28:22.633,-0.39779663,1.281723,9.675156
2018-12-13,04:28:22.636,-0.42173767,1.2529907,9.773315
2018-12-13,04:28:22.638,-0.43371582,1.2625732,9.8211975
2018-12-13,04:28:22.639,-0.40977478,1.3248138,9.79007
2018-12-13,04:28:22.713,-0.42413329999999994,1.3296051000000002,9.761337
2018-12-13,04:28:22.716,-0.4528656,1.2769318,9.780502
2018-12-13,04:28:22.718,-0.43132020000000004,1.2410278000000001,9.842742999999999
2018-12-13,04:28:22.721,-0.44807434,1.2051086000000002,9.86908
2018-12-13,04:28:22.795,-0.4887848,1.2458038,9.782883
2018-12-13,04:28:22.797,-0.45526123,1.233841,9.758942
2018-12-13,04:28:22.798,-0.39779663,1.2314453,9.8762665
2018-12-13,04:28:22.800,-0.39779663,1.2601776000000002,9.8762665
2018-12-13,04:28:22.881,-0.39300537,1.2984772,9.8211975
2018-12-13,04:28:22.884,-0.40019226,1.281723,9.727829
2018-12-13,04:28:22.887,-0.41217040000000005,1.2218628,9.689513999999999
2018-12-13,04:28:22.889,-0.44807434,1.1308899,9.787674
2018-12-13,04:28:22.956,-0.47441099999999997,1.0614624,9.871475
2018-12-13,04:28:22.958,-0.46722412,1.0901794,9.904999
2018-12-13,04:28:22.960,-0.47680664,1.0925751,9.787674
2018-12-13,04:28:22.961,-0.51272583,1.1428528,9.658386
2018-12-13,04:28:23.038,-0.5438385,1.1739807,9.639236
2018-12-13,04:28:23.041,-0.59173584,1.1284943,9.723038
2018-12-13,04:28:23.043,-0.5821533,1.1189117,9.828384
2018-12-13,04:28:23.045,-0.5582123000000001,1.1404572,9.809219
2018-12-13,04:28:23.118,-0.5414429000000001,1.1811676000000002,9.802048
2018-12-13,04:28:23.120,-0.5390625,1.1907348999999998,9.9002075
2018-12-13,04:28:23.122,-0.52708435,1.1907348999999998,9.878662
2018-12-13,04:28:23.124,-0.48638916,1.2242583999999999,9.811615
2018-12-13,04:28:23.199,-0.47920227,1.2075042999999999,9.8211975
2018-12-13,04:28:23.200,-0.47201538,1.0925751,9.921753
2018-12-13,04:28:23.201,-0.45765686,1.0399017,9.919357000000002
2018-12-13,04:28:23.202,-0.43611145,1.1069489,9.727829
2018-12-13,04:28:23.281,-0.44088745,1.1835632,9.55304
2018-12-13,04:28:23.283,-0.46961975,1.1979218,9.493195
2018-12-13,04:28:23.285,-0.49835205,1.178772,9.567413
2018-12-13,04:28:23.287,-0.4815979,1.178772,9.694305
2018-12-13,04:28:23.364,-0.44567870000000004,1.2146912,9.787674
2018-12-13,04:28:23.366,-0.41934204,1.2481995000000001,9.816406
2018-12-13,04:28:23.368,-0.3834381,1.2865143,9.703888000000001
2018-12-13,04:28:23.370,-0.38821409999999995,1.2865143,9.727829
2018-12-13,04:28:23.443,-0.45046997,1.2075042999999999,9.871475
2018-12-13,04:28:23.445,-0.5007477,1.1237030000000001,9.924149
2018-12-13,04:28:23.446,-0.47680664,1.0949707,9.945694
2018-12-13,04:28:23.448,-0.45765686,1.0782166000000002,9.873871000000001
2018-12-13,04:28:23.524,-0.43132020000000004,1.0614624,9.83078
2018-12-13,04:28:23.527,-0.42892456,1.044693,9.83078
2018-12-13,04:28:23.529,-0.42173767,1.0949707,9.86908
2018-12-13,04:28:23.531,-0.43611145,1.1404572,9.864288
2018-12-13,04:28:23.605,-0.44567870000000004,1.1500397,9.83078
2018-12-13,04:28:23.608,-0.44088745,1.1667938,9.792465
2018-12-13,04:28:23.609,-0.45046997,1.1620177999999999,9.816406
2018-12-13,04:28:23.611,-0.4815979,1.1667938,9.785278
2018-12-13,04:28:23.686,-0.48638916,1.1356812,9.828384
2018-12-13,04:28:23.687,-0.47680664,1.1524353,9.890625
2018-12-13,04:28:23.688,-0.47201538,1.1356812,9.974426
2018-12-13,04:28:23.688,-0.49116516,1.1165161,10.036682
2018-12-13,04:28:23.768,-0.5007477,1.1308899,10.067795
2018-12-13,04:28:23.770,-0.5414429000000001,1.1117401000000002,10.012741
2018-12-13,04:28:23.771,-0.56777954,1.1021576000000002,9.885834
2018-12-13,04:28:23.772,-0.57736206,1.1069489,9.75177
2018-12-13,04:28:23.849,-0.5821533,1.1260986000000002,9.627274
2018-12-13,04:28:23.851,-0.5893401999999999,1.1428528,9.5841675
2018-12-13,04:28:23.853,-0.6013031,1.1667938,9.521927
2018-12-13,04:28:23.855,-0.56777954,1.2003173999999999,9.517136
2018-12-13,04:28:23.933,-0.5606079,1.2218628,9.572205
2018-12-13,04:28:23.935,-0.53666687,1.1883545,9.703888000000001
2018-12-13,04:28:23.936,-0.47441099999999997,1.1955261000000001,9.818802
2018-12-13,04:28:23.938,-0.49116516,1.2003173999999999,9.739792
2018-12-13,04:28:24.011,-0.5318755999999999,1.1811676000000002,9.766129
2018-12-13,04:28:24.013,-0.46722412,1.1093445,9.940903
2018-12-13,04:28:24.015,-0.4648285,1.0925751,9.984009
2018-12-13,04:28:24.016,-0.43611145,1.1620177999999999,9.859497
2018-12-13,04:28:24.092,-0.45046997,1.2194672,9.833176
2018-12-13,04:28:24.094,-0.49595642,1.2721405000000001,9.794861000000001
2018-12-13,04:28:24.095,-0.4935608,1.312851,9.684723
2018-12-13,04:28:24.097,-0.46244812,1.3343964,9.758942
2018-12-13,04:28:24.173,-0.41455078,1.2889099,9.86908
2018-12-13,04:28:24.175,-0.38821409999999995,1.2481995000000001,9.914566
2018-12-13,04:28:24.177,-0.395401,1.1691895,9.873871000000001
2018-12-13,04:28:24.179,-0.38583374,1.1404572,9.766129
2018-12-13,04:28:24.254,-0.37385559999999995,1.1548308999999999,9.701492
2018-12-13,04:28:24.256,-0.38583374,1.1428528,9.67276
2018-12-13,04:28:24.258,-0.37625122,1.1428528,9.715850999999999
2018-12-13,04:28:24.259,-0.34272766,1.178772,9.713455
2018-12-13,04:28:24.336,-0.31878662,1.2410278000000001,9.622482000000002
2018-12-13,04:28:24.338,-0.34751892,1.2841187,9.634445
2018-12-13,04:28:24.340,-0.41455078,1.1763763,9.782883
2018-12-13,04:28:24.342,-0.46722412,1.0758208999999999,9.888228999999999
2018-12-13,04:28:24.417,-0.47920227,1.0399017,9.895416
2018-12-13,04:28:24.419,-0.48638916,1.0662383999999998,9.806839
2018-12-13,04:28:24.420,-0.4935608,1.1596222,9.723038
2018-12-13,04:28:24.422,-0.51989746,1.2242583999999999,9.739792
2018-12-13,04:28:24.501,-0.51989746,1.1979218,9.84993
2018-12-13,04:28:24.505,-0.4887848,1.1955261000000001,9.885834
2018-12-13,04:28:24.507,-0.44328308,1.2769318,9.814011
2018-12-13,04:28:24.508,-0.40977478,1.3463593,9.804443
2018-12-13,04:28:24.579,-0.40019226,1.2889099,9.928939999999999
2018-12-13,04:28:24.581,-0.41455078,1.1859589,10.132446
2018-12-13,04:28:24.583,-0.41455078,1.1524353,10.130051
2018-12-13,04:28:24.585,-0.44567870000000004,1.147644,9.893021000000001
2018-12-13,04:28:24.659,-0.46722412,1.1859589,9.694305
2018-12-13,04:28:24.662,-0.4887848,1.1835632,9.644028
2018-12-13,04:28:24.664,-0.51989746,1.1620177999999999,9.732605
2018-12-13,04:28:24.666,-0.50553894,1.1691895,9.754166
2018-12-13,04:28:24.741,-0.5222931,1.1620177999999999,9.71106
2018-12-13,04:28:24.744,-0.5007477,1.1667938,9.660782000000001
2018-12-13,04:28:24.746,-0.51512146,1.1260986000000002,9.730225
2018-12-13,04:28:24.748,-0.5725708,1.0662383999999998,9.802048
2018-12-13,04:28:24.823,-0.5510254,1.0949707,9.778107
2018-12-13,04:28:24.826,-0.5031433,1.1835632,9.768524000000001
2018-12-13,04:28:24.828,-0.5294800000000001,1.2314453,9.775711
2018-12-13,04:28:24.829,-0.5318755999999999,1.1979218,9.794861000000001
2018-12-13,04:28:24.909,-0.5294800000000001,1.2003173999999999,9.778107
2018-12-13,04:28:24.911,-0.4887848,1.2218628,9.83078
2018-12-13,04:28:24.913,-0.47441099999999997,1.2051086000000002,9.878662
2018-12-13,04:28:24.915,-0.45046997,1.2075042999999999,9.847534
2018-12-13,04:28:24.984,-0.41934204,1.2194672,9.804443
2018-12-13,04:28:24.986,-0.41455078,1.1979218,9.811615
2018-12-13,04:28:24.988,-0.43132020000000004,1.178772,9.852325
2018-12-13,04:28:24.989,-0.44567870000000004,1.178772,9.84993
2018-12-13,04:28:25.069,-0.45046997,1.2003173999999999,9.768524000000001
2018-12-13,04:28:25.070,-0.45046997,1.2242583999999999,9.687119000000001
2018-12-13,04:28:25.071,-0.44328308,1.2458038,9.655991
2018-12-13,04:28:25.073,-0.47680664,1.2098999,9.773315
2018-12-13,04:28:25.147,-0.4935608,1.2051086000000002,9.825989
2018-12-13,04:28:25.150,-0.47920227,1.2434082,9.79007
2018-12-13,04:28:25.151,-0.48399353,1.2505951000000002,9.792465
2018-12-13,04:28:25.153,-0.47441099999999997,1.2553864,9.895416
2018-12-13,04:28:25.228,-0.4600525,1.2481995000000001,9.960068
2018-12-13,04:28:25.230,-0.44807434,1.1739807,9.945694
2018-12-13,04:28:25.232,-0.43371582,1.1189117,9.933731
2018-12-13,04:28:25.233,-0.45526123,1.1093445,9.931335
2018-12-13,04:28:25.308,-0.4528656,1.1644135,9.837952
2018-12-13,04:28:25.310,-0.45526123,1.2146912,9.727829
2018-12-13,04:28:25.312,-0.4528656,1.1907348999999998,9.703888000000001
2018-12-13,04:28:25.313,-0.46722412,1.1237030000000001,9.768524000000001
2018-12-13,04:28:25.390,-0.41934204,1.1667938,9.754166
2018-12-13,04:28:25.391,-0.4169464,1.2553864,9.677551
2018-12-13,04:28:25.393,-0.37864685,1.3415833000000001,9.59375
2018-12-13,04:28:25.394,-0.36427307,1.3224182,9.646423
2018-12-13,04:28:25.470,-0.42173767,1.2505951000000002,9.720642
2018-12-13,04:28:25.471,-0.3834381,1.2673492,9.701492
2018-12-13,04:28:25.473,-0.37145996,1.2769318,9.723038
2018-12-13,04:28:25.474,-0.39300537,1.2098999,9.881058
2018-12-13,04:28:25.553,-0.4169464,1.1069489,10.00795
2018-12-13,04:28:25.555,-0.395401,1.1021576000000002,9.998367
2018-12-13,04:28:25.556,-0.42173767,1.1165161,9.921753
2018-12-13,04:28:25.558,-0.44567870000000004,1.1452483999999998,9.816406
2018-12-13,04:28:25.633,-0.45526123,1.1452483999999998,9.79007
2018-12-13,04:28:25.635,-0.43132020000000004,1.2051086000000002,9.727829
2018-12-13,04:28:25.637,-0.37385559999999995,1.2769318,9.679947
2018-12-13,04:28:25.638,-0.36427307,1.3080597,9.644028
2018-12-13,04:28:25.714,-0.3547058,1.2865143,9.696701
2018-12-13,04:28:25.716,-0.3379364,1.2841187,9.744583
2018-12-13,04:28:25.718,-0.34033203,1.3224182,9.687119000000001
2018-12-13,04:28:25.719,-0.34272766,1.3463593,9.667969
2018-12-13,04:28:25.794,-0.37864685,1.3224182,9.761337
2018-12-13,04:28:25.795,-0.395401,1.2553864,9.799652
2018-12-13,04:28:25.796,-0.3547058,1.2673492,9.723038
2018-12-13,04:28:25.796,-0.35710144,1.2793274,9.701492
2018-12-13,04:28:25.876,-0.36906433,1.2745361000000002,9.727829
2018-12-13,04:28:25.878,-0.39300537,1.281723,9.794861000000001
2018-12-13,04:28:25.879,-0.40019226,1.2673492,9.84993
2018-12-13,04:28:25.881,-0.40258790000000005,1.2721405000000001,9.852325
2018-12-13,04:28:25.958,-0.4169464,1.257782,9.806839
2018-12-13,04:28:25.961,-0.45765686,1.2386322,9.859497
2018-12-13,04:28:25.963,-0.49595642,1.1667938,9.938507000000001
2018-12-13,04:28:25.965,-0.5103302,1.1260986000000002,9.945694
2018-12-13,04:28:26.038,-0.4935608,1.178772,9.871475
2018-12-13,04:28:26.041,-0.4648285,1.2458038,9.768524000000001
2018-12-13,04:28:26.042,-0.47201538,1.2697448999999998,9.6631775
2018-12-13,04:28:26.044,-0.44567870000000004,1.2075042999999999,9.677551
2018-12-13,04:28:26.121,-0.4600525,1.1500397,9.847534
2018-12-13,04:28:26.124,-0.47920227,1.1189117,9.883453
2018-12-13,04:28:26.126,-0.45046997,1.2075042999999999,9.706268
2018-12-13,04:28:26.127,-0.40737915,1.2673492,9.6081085
2018-12-13,04:28:26.201,-0.40498352,1.2266540000000001,9.670364
2018-12-13,04:28:26.204,-0.38104248,1.1907348999999998,9.706268
2018-12-13,04:28:26.205,-0.3618927,1.1931305,9.785278
2018-12-13,04:28:26.207,-0.40498352,1.1069489,9.928939999999999
2018-12-13,04:28:26.281,-0.45046997,1.1069489,9.90979
2018-12-13,04:28:26.283,-0.45765686,1.1859589,9.775711
2018-12-13,04:28:26.285,-0.4935608,1.2386322,9.763733
2018-12-13,04:28:26.286,-0.5390625,1.1859589,9.885834
2018-12-13,04:28:26.362,-0.53427124,1.1596222,9.962448
2018-12-13,04:28:26.364,-0.51272583,1.1739807,9.916962
2018-12-13,04:28:26.366,-0.5246887,1.2553864,9.758942
2018-12-13,04:28:26.368,-0.51989746,1.2793274,9.71106
2018-12-13,04:28:26.443,-0.5079345999999999,1.1739807,9.835556
2018-12-13,04:28:26.445,-0.45765686,1.1308899,9.852325
2018-12-13,04:28:26.447,-0.43371582,1.1356812,9.806839
2018-12-13,04:28:26.449,-0.43850708,1.1524353,9.75177
2018-12-13,04:28:26.524,-0.45046997,1.1524353,9.696701
2018-12-13,04:28:26.526,-0.43611145,1.1835632,9.67276
2018-12-13,04:28:26.528,-0.42652893,1.2386322,9.648819
2018-12-13,04:28:26.529,-0.40498352,1.2481995000000001,9.682327
2018-12-13,04:28:26.606,-0.4169464,1.2290497,9.8211975
2018-12-13,04:28:26.607,-0.42892456,1.2170715,9.974426
2018-12-13,04:28:26.608,-0.4169464,1.2673492,9.926544
2018-12-13,04:28:26.609,-0.44328308,1.281723,9.83078
2018-12-13,04:28:26.688,-0.47441099999999997,1.257782,9.737396
2018-12-13,04:28:26.690,-0.49835205,1.2529907,9.679947
2018-12-13,04:28:26.692,-0.49595642,1.2553864,9.763733
2018-12-13,04:28:26.693,-0.51750183,1.2386322,9.888228999999999
2018-12-13,04:28:26.773,-0.5079345999999999,1.2697448999999998,9.964844
2018-12-13,04:28:26.775,-0.50553894,1.2601776000000002,9.9002075
2018-12-13,04:28:26.776,-0.51512146,1.2649689,9.756561
2018-12-13,04:28:26.778,-0.5390625,1.2601776000000002,9.703888000000001
2018-12-13,04:28:26.850,-0.5103302,1.2553864,9.720642
2018-12-13,04:28:26.852,-0.47201538,1.312851,9.737396
2018-12-13,04:28:26.853,-0.43850708,1.336792,9.718246
2018-12-13,04:28:26.854,-0.42173767,1.3056641000000002,9.766129
2018-12-13,04:28:26.931,-0.40737915,1.2410278000000001,9.818802
2018-12-13,04:28:26.933,-0.41217040000000005,1.1955261000000001,9.811615
2018-12-13,04:28:26.934,-0.45046997,1.2194672,9.727829
2018-12-13,04:28:26.936,-0.47920227,1.2075042999999999,9.617691
2018-12-13,04:28:27.013,-0.48638916,1.2218628,9.596146000000001
2018-12-13,04:28:27.015,-0.47920227,1.2242583999999999,9.65361
2018-12-13,04:28:27.016,-0.47680664,1.2984772,9.665573
2018-12-13,04:28:27.018,-0.47920227,1.3272095,9.756561
2018-12-13,04:28:27.093,-0.49835205,1.2913055,9.864288
2018-12-13,04:28:27.095,-0.4815979,1.2841187,9.943298
2018-12-13,04:28:27.097,-0.44088745,1.3415833000000001,9.9002075
2018-12-13,04:28:27.098,-0.40977478,1.4541016000000002,9.749374000000001
2018-12-13,04:28:27.212,-0.43611145,1.4349518,9.814011
2018-12-13,04:28:27.212,-0.47441099999999997,1.3224182,9.897812
2018-12-13,04:28:27.213,-0.47441099999999997,1.2601776000000002,9.931335
2018-12-13,04:28:27.213,-0.47201538,1.2362366000000002,9.8762665
2018-12-13,04:28:27.254,-0.47201538,1.2266540000000001,9.816406
2018-12-13,04:28:27.255,-0.4528656,1.2697448999999998,9.725433
2018-12-13,04:28:27.255,-0.43132020000000004,1.2960815,9.658386
2018-12-13,04:28:27.256,-0.42652893,1.2936858999999998,9.641632000000001
2018-12-13,04:28:27.335,-0.43371582,1.2841187,9.684723
2018-12-13,04:28:27.337,-0.43371582,1.2481995000000001,9.782883
2018-12-13,04:28:27.338,-0.4169464,1.257782,9.792465
2018-12-13,04:28:27.339,-0.41934204,1.2889099,9.758942
2018-12-13,04:28:27.417,-0.4169464,1.3080597,9.761337
2018-12-13,04:28:27.419,-0.44567870000000004,1.2913055,9.806839
2018-12-13,04:28:27.421,-0.44328308,1.2793274,9.768524000000001
2018-12-13,04:28:27.423,-0.43611145,1.2529907,9.780502
2018-12-13,04:28:27.498,-0.47201538,1.2673492,9.708664
2018-12-13,04:28:27.501,-0.4600525,1.3439789,9.634445
2018-12-13,04:28:27.503,-0.43371582,1.3559417999999999,9.696701
2018-12-13,04:28:27.504,-0.40258790000000005,1.3032683999999999,9.79007
2018-12-13,04:28:27.580,-0.38821409999999995,1.3008728,9.83078
2018-12-13,04:28:27.582,-0.39060974,1.2889099,9.833176
2018-12-13,04:28:27.584,-0.43611145,1.2673492,9.8211975
2018-12-13,04:28:27.586,-0.46722412,1.2649689,9.916962
2018-12-13,04:28:27.660,-0.5007477,1.2122955,10.031891
2018-12-13,04:28:27.662,-0.4935608,1.1524353,10.019913
2018-12-13,04:28:27.664,-0.43371582,1.178772,9.931335
2018-12-13,04:28:27.666,-0.41455078,1.2266540000000001,9.792465
2018-12-13,04:28:27.741,-0.37625122,1.3080597,9.665573
2018-12-13,04:28:27.744,-0.35710144,1.3487548999999999,9.600937
2018-12-13,04:28:27.746,-0.38104248,1.3176421999999999,9.655991
2018-12-13,04:28:27.748,-0.41934204,1.2936858999999998,9.648819
2018-12-13,04:28:27.822,-0.44567870000000004,1.2865143,9.620087
2018-12-13,04:28:27.825,-0.47920227,1.2697448999999998,9.600937
2018-12-13,04:28:27.826,-0.51272583,1.3008728,9.5243225
2018-12-13,04:28:27.828,-0.52708435,1.2984772,9.605713
2018-12-13,04:28:27.903,-0.5294800000000001,1.1955261000000001,9.926544
2018-12-13,04:28:27.905,-0.48638916,1.1069489,10.1731415
2018-12-13,04:28:27.907,-0.41455078,1.1596222,10.055832
2018-12-13,04:28:27.909,-0.3834381,1.2649689,9.866684
2018-12-13,04:28:27.984,-0.37864685,1.3320007,9.737396
2018-12-13,04:28:27.986,-0.40977478,1.3774872,9.639236
2018-12-13,04:28:27.988,-0.42892456,1.336792,9.627274
2018-12-13,04:28:27.990,-0.42413329999999994,1.2889099,9.670364
2018-12-13,04:28:28.066,-0.42413329999999994,1.2649689,9.667969
2018-12-13,04:28:28.068,-0.42892456,1.2984772,9.6631775
2018-12-13,04:28:28.070,-0.44807434,1.2936858999999998,9.725433
2018-12-13,04:28:28.071,-0.40019226,1.3152466,9.778107
2018-12-13,04:28:28.147,-0.3666687,1.2745361000000002,9.888228999999999
2018-12-13,04:28:28.150,-0.42173767,1.1620177999999999,10.00795
2018-12-13,04:28:28.151,-0.46961975,1.1356812,9.921753
2018-12-13,04:28:28.153,-0.43132020000000004,1.2362366000000002,9.761337
2018-12-13,04:28:28.228,-0.43611145,1.233841,9.799652
2018-12-13,04:28:28.230,-0.4600525,1.2410278000000001,9.825989
2018-12-13,04:28:28.232,-0.4815979,1.2051086000000002,9.75177
2018-12-13,04:28:28.233,-0.5007477,1.1859589,9.658386
2018-12-13,04:28:28.310,-0.52708435,1.178772,9.615295
2018-12-13,04:28:28.312,-0.57496643,1.1620177999999999,9.63205
2018-12-13,04:28:28.314,-0.5414429000000001,1.1859589,9.696701
2018-12-13,04:28:28.315,-0.47201538,1.1524353,9.833176
2018-12-13,04:28:28.391,-0.4169464,1.1572266000000002,9.823592999999999
2018-12-13,04:28:28.393,-0.39779663,1.2434082,9.720642
2018-12-13,04:28:28.395,-0.40498352,1.2936858999999998,9.689513999999999
2018-12-13,04:28:28.396,-0.4648285,1.257782,9.77092
2018-12-13,04:28:28.472,-0.4935608,1.1691895,9.948089999999999
2018-12-13,04:28:28.474,-0.49116516,1.1500397,10.000763000000001
2018-12-13,04:28:28.476,-0.50553894,1.1524353,9.933731
2018-12-13,04:28:28.477,-0.51512146,1.1979218,9.811615
2018-12-13,04:28:28.553,-0.51512146,1.2242583999999999,9.785278
2018-12-13,04:28:28.555,-0.49595642,1.2170715,9.802048
2018-12-13,04:28:28.556,-0.44807434,1.1835632,9.825989
2018-12-13,04:28:28.558,-0.43850708,1.1691895,9.828384
2018-12-13,04:28:28.634,-0.43850708,1.1308899,9.845139
2018-12-13,04:28:28.636,-0.42413329999999994,1.1332855,9.9002075
2018-12-13,04:28:28.638,-0.43611145,1.1452483999999998,9.873871000000001
2018-12-13,04:28:28.640,-0.44328308,1.1691895,9.766129
2018-12-13,04:28:28.715,-0.43132020000000004,1.1763763,9.694305
2018-12-13,04:28:28.718,-0.44567870000000004,1.1045532,9.7421875
2018-12-13,04:28:28.721,-0.4648285,1.1189117,9.773315
2018-12-13,04:28:28.722,-0.46722412,1.1620177999999999,9.840347
2018-12-13,04:28:28.796,-0.45046997,1.1739807,9.902603
2018-12-13,04:28:28.798,-0.43850708,1.1596222,9.854721000000001
2018-12-13,04:28:28.800,-0.42652893,1.178772,9.763733
2018-12-13,04:28:28.802,-0.45526123,1.1572266000000002,9.778107
2018-12-13,04:28:28.877,-0.49835205,1.1428528,9.768524000000001
2018-12-13,04:28:28.879,-0.48638916,1.1500397,9.804443
2018-12-13,04:28:28.882,-0.45765686,1.1260986000000002,9.883453
2018-12-13,04:28:28.885,-0.47680664,1.1404572,9.904999
2018-12-13,04:28:28.961,-0.4528656,1.1452483999999998,9.9552765
2018-12-13,04:28:28.963,-0.40977478,1.1548308999999999,9.9002075
2018-12-13,04:28:28.965,-0.36427307,1.2218628,9.814011
2018-12-13,04:28:28.967,-0.40737915,1.2410278000000001,9.816406
2018-12-13,04:28:29.039,-0.42652893,1.2266540000000001,9.727829
2018-12-13,04:28:29.042,-0.4169464,1.2003173999999999,9.739792
2018-12-13,04:28:29.044,-0.4169464,1.1548308999999999,9.79007
2018-12-13,04:28:29.046,-0.40737915,1.1332855,9.818802
2018-12-13,04:28:29.119,-0.37864685,1.1308899,9.818802
2018-12-13,04:28:29.121,-0.34033203,1.1596222,9.79007
2018-12-13,04:28:29.122,-0.3618927,1.1500397,9.778107
2018-12-13,04:28:29.124,-0.38583374,1.1644135,9.792465
2018-12-13,04:28:29.203,-0.43132020000000004,1.1620177999999999,9.809219
2018-12-13,04:28:29.206,-0.44807434,1.1332855,9.804443
2018-12-13,04:28:29.208,-0.4528656,1.1620177999999999,9.768524000000001
2018-12-13,04:28:29.210,-0.46722412,1.1260986000000002,9.744583
2018-12-13,04:28:29.282,-0.46722412,1.1117401000000002,9.758942
2018-12-13,04:28:29.285,-0.41934204,1.1548308999999999,9.828384
2018-12-13,04:28:29.287,-0.3834381,1.2266540000000001,9.766129
2018-12-13,04:28:29.288,-0.3618927,1.2745361000000002,9.660782000000001
2018-12-13,04:28:29.363,-0.37145996,1.2266540000000001,9.75177
2018-12-13,04:28:29.366,-0.40498352,1.1380768,9.854721000000001
2018-12-13,04:28:29.368,-0.40498352,1.1045532,9.878662
2018-12-13,04:28:29.370,-0.40258790000000005,1.1428528,9.823592999999999
2018-12-13,04:28:29.444,-0.40977478,1.1715851000000002,9.802048
2018-12-13,04:28:29.446,-0.42413329999999994,1.1428528,9.931335
2018-12-13,04:28:29.448,-0.4600525,1.1428528,9.9552765
2018-12-13,04:28:29.449,-0.4169464,1.2481995000000001,9.806839
2018-12-13,04:28:29.528,-0.41934204,1.281723,9.67276
2018-12-13,04:28:29.530,-0.5031433,1.2051086000000002,9.69191
2018-12-13,04:28:29.531,-0.5246887,1.1548308999999999,9.713455
2018-12-13,04:28:29.533,-0.45046997,1.1811676000000002,9.754166
2018-12-13,04:28:29.608,-0.42413329999999994,1.1979218,9.83078
2018-12-13,04:28:29.610,-0.42173767,1.1835632,9.859497
2018-12-13,04:28:29.612,-0.4169464,1.1093445,9.895416
2018-12-13,04:28:29.613,-0.39779663,1.1165161,9.86908
2018-12-13,04:28:29.688,-0.40737915,1.1356812,9.814011
2018-12-13,04:28:29.690,-0.39300537,1.1572266000000002,9.806839
2018-12-13,04:28:29.692,-0.37385559999999995,1.1500397,9.814011
2018-12-13,04:28:29.693,-0.316391,1.1907348999999998,9.720642
2018-12-13,04:28:29.768,-0.31159973,1.2290497,9.655991
2018-12-13,04:28:29.771,-0.32357788,1.1931305,9.679947
2018-12-13,04:28:29.772,-0.3331604,1.1691895,9.756561
2018-12-13,04:28:29.773,-0.35710144,1.1165161,9.861892999999998
2018-12-13,04:28:29.850,-0.38104248,1.1284943,9.864288
2018-12-13,04:28:29.852,-0.41455078,1.1332855,9.809219
2018-12-13,04:28:29.854,-0.46244812,1.1165161,9.792465
2018-12-13,04:28:29.855,-0.47680664,1.1308899,9.75177
2018-12-13,04:28:29.932,-0.5007477,1.1596222,9.713455
2018-12-13,04:28:29.934,-0.5031433,1.1739807,9.754166
2018-12-13,04:28:29.935,-0.5103302,1.1452483999999998,9.787674
2018-12-13,04:28:29.936,-0.47920227,1.1572266000000002,9.785278
2018-12-13,04:28:30.014,-0.46244812,1.178772,9.787674
2018-12-13,04:28:30.016,-0.45765686,1.2075042999999999,9.811615
2018-12-13,04:28:30.018,-0.45046997,1.1955261000000001,9.857117
2018-12-13,04:28:30.021,-0.4648285,1.1452483999999998,9.878662
2018-12-13,04:28:30.093,-0.47680664,1.1117401000000002,9.907394
2018-12-13,04:28:30.096,-0.4648285,1.1237030000000001,9.878662
2018-12-13,04:28:30.097,-0.4648285,1.1380768,9.840347
2018-12-13,04:28:30.099,-0.44088745,1.1907348999999998,9.828384
2018-12-13,04:28:30.174,-0.40498352,1.1835632,9.833176
2018-12-13,04:28:30.176,-0.42413329999999994,1.1859589,9.744583
2018-12-13,04:28:30.178,-0.44328308,1.2170715,9.565017999999998
2018-12-13,04:28:30.180,-0.40977478,1.2458038,9.598541
2018-12-13,04:28:30.256,-0.40258790000000005,1.1883545,9.744583
2018-12-13,04:28:30.258,-0.37385559999999995,1.1739807,9.775711
2018-12-13,04:28:30.259,-0.3666687,1.1548308999999999,9.763733
2018-12-13,04:28:30.261,-0.37864685,1.147644,9.823592999999999
2018-12-13,04:28:30.337,-0.38104248,1.1739807,9.893021000000001
2018-12-13,04:28:30.339,-0.395401,1.1883545,9.9002075
2018-12-13,04:28:30.341,-0.40019226,1.1931305,9.802048
2018-12-13,04:28:30.343,-0.39300537,1.1883545,9.792465
2018-12-13,04:28:30.418,-0.42652893,1.2075042999999999,9.799652
2018-12-13,04:28:30.422,-0.4528656,1.2075042999999999,9.787674
2018-12-13,04:28:30.424,-0.45046997,1.2218628,9.763733
2018-12-13,04:28:30.425,-0.44328308,1.2218628,9.744583
2018-12-13,04:28:30.499,-0.4815979,1.1644135,9.79007
2018-12-13,04:28:30.501,-0.49835205,1.1428528,9.823592999999999
2018-12-13,04:28:30.503,-0.5222931,1.1572266000000002,9.83078
2018-12-13,04:28:30.504,-0.52708435,1.1596222,9.754166
2018-12-13,04:28:30.584,-0.52708435,1.1835632,9.706268
2018-12-13,04:28:30.586,-0.49835205,1.1835632,9.723038
2018-12-13,04:28:30.589,-0.47920227,1.1667938,9.840347
2018-12-13,04:28:30.591,-0.45526123,1.1883545,9.871475
2018-12-13,04:28:30.662,-0.43850708,1.2146912,9.816406
2018-12-13,04:28:30.664,-0.43371582,1.2098999,9.792465
2018-12-13,04:28:30.666,-0.41934204,1.2075042999999999,9.79007
2018-12-13,04:28:30.667,-0.44328308,1.1691895,9.814011
2018-12-13,04:28:30.743,-0.4528656,1.1739807,9.8211975
2018-12-13,04:28:30.746,-0.43850708,1.2098999,9.806839
2018-12-13,04:28:30.748,-0.42413329999999994,1.2242583999999999,9.835556
2018-12-13,04:28:30.749,-0.45765686,1.2649689,9.737396
2018-12-13,04:28:30.824,-0.43371582,1.2625732,9.706268
2018-12-13,04:28:30.827,-0.46244812,1.1931305,9.833176
2018-12-13,04:28:30.829,-0.51272583,1.178772,9.8211975
2018-12-13,04:28:30.831,-0.5103302,1.2075042999999999,9.703888000000001
2018-12-13,04:28:30.904,-0.47201538,1.2098999,9.739792
2018-12-13,04:28:30.907,-0.45046997,1.1835632,9.837952
2018-12-13,04:28:30.909,-0.42413329999999994,1.1931305,9.816406
2018-12-13,04:28:30.910,-0.41217040000000005,1.1859589,9.799652
2018-12-13,04:28:30.985,-0.395401,1.1644135,9.835556
2018-12-13,04:28:30.988,-0.40258790000000005,1.178772,9.888228999999999
2018-12-13,04:28:30.989,-0.4169464,1.1811676000000002,9.883453
2018-12-13,04:28:30.991,-0.41217040000000005,1.2242583999999999,9.852325
2018-12-13,04:28:31.067,-0.42892456,1.2697448999999998,9.746979
2018-12-13,04:28:31.069,-0.4528656,1.2601776000000002,9.646423
2018-12-13,04:28:31.070,-0.42173767,1.3080597,9.600937
2018-12-13,04:28:31.072,-0.4169464,1.3032683999999999,9.696701
2018-12-13,04:28:31.148,-0.41934204,1.2769318,9.797255999999999
2018-12-13,04:28:31.150,-0.38104248,1.2793274,9.802048
2018-12-13,04:28:31.151,-0.37625122,1.2553864,9.823592999999999
2018-12-13,04:28:31.152,-0.41455078,1.2266540000000001,9.857117
2018-12-13,04:28:31.229,-0.41455078,1.1859589,9.893021000000001
2018-12-13,04:28:31.231,-0.4169464,1.1691895,9.897812
2018-12-13,04:28:31.232,-0.37145996,1.1979218,9.792465
2018-12-13,04:28:31.234,-0.34033203,1.2434082,9.768524000000001
2018-12-13,04:28:31.311,-0.316391,1.2745361000000002,9.761337
2018-12-13,04:28:31.312,-0.30921936,1.2889099,9.739792
2018-12-13,04:28:31.314,-0.34751892,1.2673492,9.763733
2018-12-13,04:28:31.315,-0.35710144,1.2649689,9.754166
2018-12-13,04:28:31.390,-0.40258790000000005,1.257782,9.715850999999999
2018-12-13,04:28:31.393,-0.43371582,1.233841,9.7421875
2018-12-13,04:28:31.394,-0.43371582,1.1835632,9.828384
2018-12-13,04:28:31.396,-0.44088745,1.2170715,9.837952
2018-12-13,04:28:31.472,-0.40977478,1.257782,9.842742999999999
2018-12-13,04:28:31.474,-0.38821409999999995,1.2434082,9.866684
2018-12-13,04:28:31.476,-0.42413329999999994,1.1859589,9.873871000000001
2018-12-13,04:28:31.478,-0.44088745,1.2146912,9.761337
2018-12-13,04:28:31.553,-0.42652893,1.2745361000000002,9.667969
2018-12-13,04:28:31.555,-0.40258790000000005,1.2266540000000001,9.735000999999999
2018-12-13,04:28:31.556,-0.40019226,1.1835632,9.86908
2018-12-13,04:28:31.558,-0.36427307,1.2170715,9.845139
2018-12-13,04:28:31.635,-0.36906433,1.2051086000000002,9.818802
2018-12-13,04:28:31.638,-0.39060974,1.2386322,9.83078
2018-12-13,04:28:31.640,-0.40258790000000005,1.233841,9.809219
2018-12-13,04:28:31.642,-0.37625122,1.2362366000000002,9.799652
2018-12-13,04:28:31.718,-0.40498352,1.178772,9.8211975
2018-12-13,04:28:31.721,-0.42652893,1.2146912,9.758942
2018-12-13,04:28:31.724,-0.41455078,1.2434082,9.766129
2018-12-13,04:28:31.726,-0.39779663,1.2410278000000001,9.802048
2018-12-13,04:28:31.796,-0.37385559999999995,1.2649689,9.756561
2018-12-13,04:28:31.799,-0.36427307,1.2673492,9.763733
2018-12-13,04:28:31.801,-0.36427307,1.2386322,9.809219
2018-12-13,04:28:31.803,-0.3666687,1.2290497,9.833176
2018-12-13,04:28:31.877,-0.37385559999999995,1.2410278000000001,9.811615
2018-12-13,04:28:31.880,-0.37145996,1.2625732,9.797255999999999
2018-12-13,04:28:31.882,-0.36427307,1.257782,9.782883
2018-12-13,04:28:31.883,-0.35710144,1.257782,9.797255999999999
2018-12-13,04:28:31.959,-0.34033203,1.257782,9.785278
2018-12-13,04:28:31.961,-0.316391,1.2865143,9.761337
2018-12-13,04:28:31.963,-0.30203247,1.2673492,9.780502
2018-12-13,04:28:31.964,-0.316391,1.2553864,9.806839
2018-12-13,04:28:32.043,-0.316391,1.2505951000000002,9.857117
2018-12-13,04:28:32.046,-0.30203247,1.2673492,9.837952
2018-12-13,04:28:32.047,-0.31399536,1.2553864,9.814011
2018-12-13,04:28:32.049,-0.35710144,1.2697448999999998,9.785278
2018-12-13,04:28:32.120,-0.34272766,1.2673492,9.782883
2018-12-13,04:28:32.122,-0.34272766,1.2410278000000001,9.814011
2018-12-13,04:28:32.123,-0.40498352,1.2673492,9.725433
2018-12-13,04:28:32.125,-0.35231018,1.3391876,9.634445
2018-12-13,04:28:32.203,-0.3379364,1.3104552999999999,9.758942
2018-12-13,04:28:32.206,-0.3331604,1.233841,9.885834
2018-12-13,04:28:32.207,-0.31399536,1.2434082,9.845139
2018-12-13,04:28:32.209,-0.3044281,1.2960815,9.778107
2018-12-13,04:28:32.285,-0.32357788,1.2769318,9.816406
2018-12-13,04:28:32.288,-0.3666687,1.2290497,9.852325
2018-12-13,04:28:32.289,-0.37145996,1.233841,9.823592999999999
2018-12-13,04:28:32.291,-0.34033203,1.2601776000000002,9.7421875
2018-12-13,04:28:32.364,-0.3331604,1.281723,9.735000999999999
2018-12-13,04:28:32.366,-0.34033203,1.2745361000000002,9.768524000000001
2018-12-13,04:28:32.367,-0.33555603,1.2769318,9.778107
2018-12-13,04:28:32.369,-0.33076477,1.2697448999999998,9.766129
2018-12-13,04:28:32.449,-0.32836914,1.281723,9.730225
2018-12-13,04:28:32.451,-0.35231018,1.2505951000000002,9.756561
2018-12-13,04:28:32.453,-0.39060974,1.1811676000000002,9.809219
2018-12-13,04:28:32.455,-0.39300537,1.1931305,9.811615
2018-12-13,04:28:32.526,-0.36906433,1.2481995000000001,9.768524000000001
2018-12-13,04:28:32.528,-0.35710144,1.2936858999999998,9.744583
2018-12-13,04:28:32.530,-0.3331604,1.3104552999999999,9.735000999999999
2018-12-13,04:28:32.531,-0.32357788,1.2889099,9.749374000000001
2018-12-13,04:28:32.607,-0.3259735,1.257782,9.787674
2018-12-13,04:28:32.609,-0.3379364,1.257782,9.780502
2018-12-13,04:28:32.611,-0.36427307,1.2673492,9.761337
2018-12-13,04:28:32.612,-0.38104248,1.2601776000000002,9.773315
2018-12-13,04:28:32.688,-0.37385559999999995,1.2386322,9.804443
2018-12-13,04:28:32.690,-0.35231018,1.2362366000000002,9.837952
2018-12-13,04:28:32.692,-0.36906433,1.2386322,9.842742999999999
2018-12-13,04:28:32.694,-0.34991455,1.2913055,9.749374000000001
2018-12-13,04:28:32.770,-0.3379364,1.2913055,9.761337
2018-12-13,04:28:32.772,-0.37864685,1.2290497,9.809219
2018-12-13,04:28:32.773,-0.39300537,1.2218628,9.727829
2018-12-13,04:28:32.775,-0.3331604,1.2841187,9.703888000000001
2018-12-13,04:28:32.851,-0.316391,1.3200226000000002,9.758942
2018-12-13,04:28:32.853,-0.316391,1.2745361000000002,9.79007
2018-12-13,04:28:32.855,-0.28527832,1.281723,9.761337
2018-12-13,04:28:32.857,-0.28527832,1.2936858999999998,9.7421875
2018-12-13,04:28:32.931,-0.316391,1.2865143,9.768524000000001
2018-12-13,04:28:32.933,-0.34751892,1.2984772,9.778107
2018-12-13,04:28:32.934,-0.37864685,1.2625732,9.852325
2018-12-13,04:28:32.935,-0.39300537,1.1883545,9.969635
2018-12-13,04:28:33.013,-0.42413329999999994,1.1667938,9.950485
2018-12-13,04:28:33.015,-0.3834381,1.2625732,9.828384
2018-12-13,04:28:33.017,-0.38104248,1.3176421999999999,9.761337
2018-12-13,04:28:33.019,-0.3834381,1.3343964,9.713455
2018-12-13,04:28:33.095,-0.39060974,1.2745361000000002,9.730225
2018-12-13,04:28:33.097,-0.36906433,1.2481995000000001,9.766129
2018-12-13,04:28:33.099,-0.35231018,1.257782,9.749374000000001
2018-12-13,04:28:33.101,-0.37625122,1.2697448999999998,9.737396
2018-12-13,04:28:33.176,-0.38104248,1.233841,9.746979
2018-12-13,04:28:33.178,-0.37385559999999995,1.2362366000000002,9.797255999999999
2018-12-13,04:28:33.180,-0.34272766,1.2314453,9.811615
2018-12-13,04:28:33.182,-0.3259735,1.2170715,9.835556
2018-12-13,04:28:33.255,-0.29484558,1.2793274,9.818802
2018-12-13,04:28:33.258,-0.31159973,1.2769318,9.818802
2018-12-13,04:28:33.259,-0.3331604,1.2721405000000001,9.806839
2018-12-13,04:28:33.261,-0.35231018,1.257782,9.802048
2018-12-13,04:28:33.337,-0.35231018,1.2793274,9.79007
2018-12-13,04:28:33.339,-0.33555603,1.3080597,9.732605
2018-12-13,04:28:33.341,-0.35710144,1.3320007,9.6631775
2018-12-13,04:28:33.342,-0.35710144,1.3415833000000001,9.718246
2018-12-13,04:28:33.422,-0.32118225,1.2936858999999998,9.787674
2018-12-13,04:28:33.425,-0.3618927,1.2625732,9.854721000000001
2018-12-13,04:28:33.427,-0.39300537,1.2434082,9.842742999999999
2018-12-13,04:28:33.428,-0.34751892,1.2745361000000002,9.785278
2018-12-13,04:28:33.499,-0.34033203,1.2960815,9.809219
2018-12-13,04:28:33.501,-0.35710144,1.2649689,9.859497
2018-12-13,04:28:33.503,-0.33076477,1.2529907,9.871475
2018-12-13,04:28:33.504,-0.30682373,1.2769318,9.835556
2018-12-13,04:28:33.581,-0.33076477,1.2913055,9.797255999999999
2018-12-13,04:28:33.584,-0.34033203,1.336792,9.735000999999999
2018-12-13,04:28:33.586,-0.30921936,1.3463593,9.67276
2018-12-13,04:28:33.587,-0.30203247,1.3415833000000001,9.655991
2018-12-13,04:28:33.662,-0.33076477,1.3056641000000002,9.713455
2018-12-13,04:28:33.664,-0.32836914,1.3056641000000002,9.735000999999999
2018-12-13,04:28:33.666,-0.33076477,1.3056641000000002,9.768524000000001
2018-12-13,04:28:33.668,-0.34512329999999997,1.2673492,9.837952
2018-12-13,04:28:33.742,-0.33555603,1.2553864,9.878662
2018-12-13,04:28:33.744,-0.3331604,1.2913055,9.845139
2018-12-13,04:28:33.746,-0.34033203,1.3200226000000002,9.787674
2018-12-13,04:28:33.748,-0.32836914,1.3272095,9.768524000000001
2018-12-13,04:28:33.825,-0.31399536,1.3391876,9.744583
2018-12-13,04:28:33.828,-0.30203247,1.3487548999999999,9.725433
2018-12-13,04:28:33.830,-0.32118225,1.3200226000000002,9.739792
2018-12-13,04:28:33.831,-0.28048706,1.336792,9.75177
2018-12-13,04:28:33.906,-0.28048706,1.3511505,9.766129
2018-12-13,04:28:33.909,-0.27330017,1.3415833000000001,9.758942
2018-12-13,04:28:33.910,-0.29005432,1.312851,9.79007
2018-12-13,04:28:33.912,-0.31159973,1.3056641000000002,9.8211975
2018-12-13,04:28:33.986,-0.29963684,1.3320007,9.854721000000001
2018-12-13,04:28:33.988,-0.3044281,1.3511505,9.79007
2018-12-13,04:28:33.990,-0.29724120000000004,1.3679199,9.761337
2018-12-13,04:28:33.991,-0.35710144,1.3415833000000001,9.775711
2018-12-13,04:28:34.067,-0.34033203,1.3248138,9.778107
2018-12-13,04:28:34.069,-0.34272766,1.3056641000000002,9.797255999999999
2018-12-13,04:28:34.071,-0.38104248,1.2889099,9.778107
2018-12-13,04:28:34.072,-0.38821409999999995,1.3200226000000002,9.687119000000001
2018-12-13,04:28:34.149,-0.31878662,1.3559417999999999,9.699097
2018-12-13,04:28:34.151,-0.29484558,1.3080597,9.845139
2018-12-13,04:28:34.153,-0.29484558,1.2769318,9.883453
2018-12-13,04:28:34.154,-0.29724120000000004,1.2913055,9.804443
2018-12-13,04:28:34.280,-0.32836914,1.2865143,9.778107
2018-12-13,04:28:34.281,-0.35710144,1.2984772,9.809219
2018-12-13,04:28:34.282,-0.36427307,1.3224182,9.852325
2018-12-13,04:28:34.282,-0.35949707,1.3487548999999999,9.806839
2018-12-13,04:28:34.309,-0.35710144,1.3391876,9.792465
2018-12-13,04:28:34.310,-0.36906433,1.3583374,9.8211975
2018-12-13,04:28:34.310,-0.35949707,1.3511505,9.782883
2018-12-13,04:28:34.311,-0.32836914,1.3439789,9.763733
2018-12-13,04:28:34.390,-0.31399536,1.2889099,9.749374000000001
2018-12-13,04:28:34.391,-0.34272766,1.2146912,9.811615
2018-12-13,04:28:34.392,-0.3547058,1.1883545,9.885834
2018-12-13,04:28:34.392,-0.34512329999999997,1.2625732,9.782883
2018-12-13,04:28:34.472,-0.33555603,1.3846741000000002,9.641632000000001
2018-12-13,04:28:34.473,-0.34033203,1.3822784,9.682327
2018-12-13,04:28:34.474,-0.35231018,1.3343964,9.77092
2018-12-13,04:28:34.474,-0.32118225,1.3463593,9.77092
2018-12-13,04:28:34.554,-0.30921936,1.3966370000000001,9.718246
2018-12-13,04:28:34.556,-0.31399536,1.4062195,9.713455
2018-12-13,04:28:34.557,-0.36427307,1.3726958999999999,9.825989
2018-12-13,04:28:34.559,-0.3618927,1.3415833000000001,9.9002075
2018-12-13,04:28:34.634,-0.35710144,1.3343964,9.888228999999999
2018-12-13,04:28:34.636,-0.3547058,1.336792,9.833176
2018-12-13,04:28:34.638,-0.35710144,1.3487548999999999,9.806839
2018-12-13,04:28:34.639,-0.37385559999999995,1.3391876,9.761337
2018-12-13,04:28:34.716,-0.36427307,1.3750916000000002,9.708664
2018-12-13,04:28:34.718,-0.3379364,1.4014282,9.679947
2018-12-13,04:28:34.719,-0.316391,1.3870697,9.679947
2018-12-13,04:28:34.721,-0.3666687,1.3080597,9.718246
2018-12-13,04:28:34.797,-0.3618927,1.3679199,9.627274
2018-12-13,04:28:34.800,-0.33555603,1.4253693,9.59375
2018-12-13,04:28:34.802,-0.32357788,1.3990326000000002,9.701492
2018-12-13,04:28:34.803,-0.29963684,1.3248138,9.852325
2018-12-13,04:28:34.877,-0.29484558,1.3176421999999999,9.8762665
2018-12-13,04:28:34.879,-0.3044281,1.3200226000000002,9.86908
2018-12-13,04:28:34.880,-0.3259735,1.3391876,9.816406
2018-12-13,04:28:34.882,-0.35710144,1.3870697,9.758942
2018-12-13,04:28:34.959,-0.34751892,1.3990326000000002,9.715850999999999
2018-12-13,04:28:34.961,-0.3259735,1.3822784,9.699097
2018-12-13,04:28:34.963,-0.34033203,1.3655243000000001,9.665573
2018-12-13,04:28:34.964,-0.32357788,1.3870697,9.679947
2018-12-13,04:28:35.044,-0.316391,1.3894653000000001,9.694305
2018-12-13,04:28:35.047,-0.32836914,1.360733,9.732605
2018-12-13,04:28:35.049,-0.34033203,1.3463593,9.766129
2018-12-13,04:28:35.050,-0.33555603,1.336792,9.79007
2018-12-13,04:28:35.121,-0.3331604,1.3559417999999999,9.780502
2018-12-13,04:28:35.123,-0.35949707,1.3655243000000001,9.775711
2018-12-13,04:28:35.125,-0.34751892,1.3655243000000001,9.806839
2018-12-13,04:28:35.126,-0.31399536,1.3703003,9.794861000000001
2018-12-13,04:28:35.203,-0.30203247,1.3631287,9.792465
2018-12-13,04:28:35.205,-0.2876587,1.3870697,9.737396
2018-12-13,04:28:35.207,-0.28288270000000004,1.4062195,9.727829
2018-12-13,04:28:35.209,-0.29963684,1.3750916000000002,9.768524000000001
2018-12-13,04:28:35.284,-0.30682373,1.3415833000000001,9.8211975
2018-12-13,04:28:35.287,-0.29484558,1.3391876,9.847534
2018-12-13,04:28:35.289,-0.30203247,1.360733,9.737396
2018-12-13,04:28:35.290,-0.31399536,1.3822784,9.713455
2018-12-13,04:28:35.364,-0.30682373,1.3750916000000002,9.763733
2018-12-13,04:28:35.365,-0.32357788,1.3463593,9.756561
2018-12-13,04:28:35.365,-0.31399536,1.3631287,9.792465
2018-12-13,04:28:35.366,-0.30682373,1.3200226000000002,9.878662
2018-12-13,04:28:35.446,-0.36427307,1.3032683999999999,9.857117
2018-12-13,04:28:35.448,-0.35710144,1.3798828,9.660782000000001
2018-12-13,04:28:35.450,-0.29244995,1.4229736000000002,9.644028
2018-12-13,04:28:35.452,-0.29484558,1.3703003,9.797255999999999
2018-12-13,04:28:35.526,-0.28048706,1.3152466,9.866684
2018-12-13,04:28:35.529,-0.25175476,1.3152466,9.861892999999998
2018-12-13,04:28:35.530,-0.27090454,1.3439789,9.8211975
2018-12-13,04:28:35.532,-0.29005432,1.3655243000000001,9.732605
2018-12-13,04:28:35.607,-0.31159973,1.3774872,9.715850999999999
2018-12-13,04:28:35.609,-0.29724120000000004,1.3080597,9.799652
2018-12-13,04:28:35.611,-0.32118225,1.2984772,9.9002075
2018-12-13,04:28:35.612,-0.34272766,1.3176421999999999,9.828384
2018-12-13,04:28:35.689,-0.316391,1.391861,9.696701
2018-12-13,04:28:35.691,-0.31399536,1.4181976,9.6631775
2018-12-13,04:28:35.692,-0.35949707,1.3343964,9.799652
2018-12-13,04:28:35.694,-0.34272766,1.2697448999999998,9.857117
2018-12-13,04:28:35.770,-0.3259735,1.281723,9.835556
2018-12-13,04:28:35.772,-0.34991455,1.3008728,9.8211975
2018-12-13,04:28:35.773,-0.3547058,1.3152466,9.806839
2018-12-13,04:28:35.775,-0.34272766,1.3296051000000002,9.780502
2018-12-13,04:28:35.851,-0.31878662,1.3152466,9.775711
2018-12-13,04:28:35.853,-0.29484558,1.3248138,9.761337
2018-12-13,04:28:35.854,-0.30203247,1.3200226000000002,9.780502
2018-12-13,04:28:35.855,-0.316391,1.3056641000000002,9.804443
2018-12-13,04:28:35.931,-0.31159973,1.3224182,9.799652
2018-12-13,04:28:35.932,-0.31399536,1.3272095,9.809219
2018-12-13,04:28:35.933,-0.316391,1.3224182,9.77092
2018-12-13,04:28:35.933,-0.33555603,1.3224182,9.723038
2018-12-13,04:28:36.012,-0.316391,1.3511505,9.684723
2018-12-13,04:28:36.014,-0.33076477,1.3726958999999999,9.687119000000001
2018-12-13,04:28:36.016,-0.32118225,1.3415833000000001,9.715850999999999
2018-12-13,04:28:36.018,-0.31878662,1.3320007,9.794861000000001
2018-12-13,04:28:36.098,-0.30203247,1.3296051000000002,9.785278
2018-12-13,04:28:36.100,-0.30682373,1.2913055,9.847534
2018-12-13,04:28:36.102,-0.35710144,1.2673492,9.852325
2018-12-13,04:28:36.104,-0.38821409999999995,1.2649689,9.773315
2018-12-13,04:28:36.175,-0.32357788,1.3080597,9.7421875
2018-12-13,04:28:36.177,-0.29244995,1.3511505,9.744583
2018-12-13,04:28:36.179,-0.28527832,1.3655243000000001,9.699097
2018-12-13,04:28:36.180,-0.26371765,1.360733,9.703888000000001
2018-12-13,04:28:36.256,-0.29484558,1.3080597,9.775711
2018-12-13,04:28:36.259,-0.29963684,1.3032683999999999,9.83078
2018-12-13,04:28:36.261,-0.32836914,1.3104552999999999,9.857117
2018-12-13,04:28:36.263,-0.34033203,1.2936858999999998,9.8762665
2018-12-13,04:28:36.338,-0.34751892,1.3008728,9.90979
2018-12-13,04:28:36.340,-0.3331604,1.3559417999999999,9.797255999999999
2018-12-13,04:28:36.342,-0.29724120000000004,1.415802,9.730225
2018-12-13,04:28:36.344,-0.31159973,1.415802,9.792465
2018-12-13,04:28:36.419,-0.31878662,1.4038239,9.816406
2018-12-13,04:28:36.421,-0.32836914,1.3343964,9.811615
2018-12-13,04:28:36.422,-0.3618927,1.2865143,9.816406
2018-12-13,04:28:36.424,-0.35231018,1.3200226000000002,9.79007
2018-12-13,04:28:36.500,-0.37625122,1.3056641000000002,9.823592999999999
2018-12-13,04:28:36.502,-0.36906433,1.2889099,9.825989
2018-12-13,04:28:36.504,-0.32836914,1.2769318,9.802048
2018-12-13,04:28:36.506,-0.31399536,1.3056641000000002,9.749374000000001
2018-12-13,04:28:36.582,-0.3259735,1.3391876,9.660782000000001
2018-12-13,04:28:36.584,-0.34991455,1.3487548999999999,9.675156
2018-12-13,04:28:36.586,-0.34991455,1.3415833000000001,9.715850999999999
2018-12-13,04:28:36.588,-0.32118225,1.3463593,9.730225
2018-12-13,04:28:36.664,-0.3331604,1.3272095,9.746979
2018-12-13,04:28:36.666,-0.36906433,1.3080597,9.83078
2018-12-13,04:28:36.668,-0.3666687,1.3056641000000002,9.854721000000001
2018-12-13,04:28:36.669,-0.34991455,1.3152466,9.835556
2018-12-13,04:28:36.743,-0.34512329999999997,1.3535461000000002,9.811615
2018-12-13,04:28:36.745,-0.35710144,1.3679199,9.780502
2018-12-13,04:28:36.747,-0.3379364,1.4086151000000002,9.703888000000001
2018-12-13,04:28:36.749,-0.34033203,1.3870697,9.739792
2018-12-13,04:28:36.824,-0.41217040000000005,1.312851,9.778107
2018-12-13,04:28:36.826,-0.40019226,1.3559417999999999,9.67276
2018-12-13,04:28:36.828,-0.36427307,1.3679199,9.682327
2018-12-13,04:28:36.829,-0.34991455,1.3224182,9.852325
2018-12-13,04:28:36.906,-0.32836914,1.2913055,9.895416
2018-12-13,04:28:36.908,-0.30203247,1.3104552999999999,9.840347
2018-12-13,04:28:36.909,-0.316391,1.3296051000000002,9.739792
2018-12-13,04:28:36.911,-0.35949707,1.3176421999999999,9.660782000000001
2018-12-13,04:28:36.987,-0.38104248,1.3487548999999999,9.644028
2018-12-13,04:28:36.989,-0.37145996,1.3296051000000002,9.622482000000002
2018-12-13,04:28:36.990,-0.36906433,1.3224182,9.655991
2018-12-13,04:28:36.991,-0.39060974,1.3296051000000002,9.651214999999999
2018-12-13,04:28:37.067,-0.39060974,1.3320007,9.6631775
2018-12-13,04:28:37.069,-0.37385559999999995,1.3343964,9.802048
2018-12-13,04:28:37.071,-0.37145996,1.3224182,9.888228999999999
2018-12-13,04:28:37.072,-0.35949707,1.3343964,9.881058
2018-12-13,04:28:37.148,-0.37625122,1.3224182,9.881058
2018-12-13,04:28:37.150,-0.37864685,1.312851,9.895416
2018-12-13,04:28:37.151,-0.38583374,1.3415833000000001,9.823592999999999
2018-12-13,04:28:37.152,-0.3666687,1.3631287,9.713455
2018-12-13,04:28:37.230,-0.34751892,1.360733,9.708664
2018-12-13,04:28:37.232,-0.34272766,1.3248138,9.744583
2018-12-13,04:28:37.234,-0.3331604,1.3104552999999999,9.758942
2018-12-13,04:28:37.235,-0.30682373,1.3056641000000002,9.775711
2018-12-13,04:28:37.311,-0.31159973,1.3343964,9.749374000000001
2018-12-13,04:28:37.313,-0.31159973,1.3272095,9.763733
2018-12-13,04:28:37.314,-0.33555603,1.2649689,9.799652
2018-12-13,04:28:37.315,-0.34272766,1.2793274,9.787674
2018-12-13,04:28:37.392,-0.34751892,1.3152466,9.775711
2018-12-13,04:28:37.394,-0.37864685,1.2865143,9.754166
2018-12-13,04:28:37.395,-0.3666687,1.3032683999999999,9.763733
2018-12-13,04:28:37.397,-0.38583374,1.3104552999999999,9.75177
2018-12-13,04:28:37.473,-0.3666687,1.3248138,9.7421875
2018-12-13,04:28:37.475,-0.34751892,1.2793274,9.852325
2018-12-13,04:28:37.477,-0.37145996,1.2697448999999998,9.883453
2018-12-13,04:28:37.479,-0.37385559999999995,1.3032683999999999,9.768524000000001
2018-12-13,04:28:37.554,-0.30682373,1.3272095,9.754166
2018-12-13,04:28:37.556,-0.28527832,1.3032683999999999,9.797255999999999
2018-12-13,04:28:37.557,-0.29963684,1.2793274,9.833176
2018-12-13,04:28:37.559,-0.28527832,1.2410278000000001,9.837952
2018-12-13,04:28:37.636,-0.29005432,1.2314453,9.8762665
2018-12-13,04:28:37.638,-0.31159973,1.2721405000000001,9.825989
2018-12-13,04:28:37.640,-0.31878662,1.3176421999999999,9.754166
2018-12-13,04:28:37.641,-0.316391,1.2673492,9.823592999999999
2018-12-13,04:28:37.717,-0.32836914,1.2146912,9.916962
2018-12-13,04:28:37.719,-0.30203247,1.2721405000000001,9.79007
2018-12-13,04:28:37.721,-0.29005432,1.3655243000000001,9.634445
2018-12-13,04:28:37.723,-0.3044281,1.3774872,9.624878
2018-12-13,04:28:37.801,-0.31399536,1.3104552999999999,9.694305
2018-12-13,04:28:37.803,-0.30203247,1.2721405000000001,9.77092
2018-12-13,04:28:37.805,-0.316391,1.2553864,9.802048
2018-12-13,04:28:37.807,-0.33555603,1.2529907,9.806839
2018-12-13,04:28:37.878,-0.32118225,1.281723,9.77092
2018-12-13,04:28:37.881,-0.31878662,1.2936858999999998,9.746979
2018-12-13,04:28:37.882,-0.29244995,1.3272095,9.699097
2018-12-13,04:28:37.884,-0.26132202,1.2984772,9.732605
2018-12-13,04:28:37.959,-0.27090454,1.2697448999999998,9.835556
2018-12-13,04:28:37.962,-0.2541504,1.2769318,9.895416
2018-12-13,04:28:37.963,-0.23977661,1.3032683999999999,9.861892999999998
2018-12-13,04:28:37.965,-0.24217224,1.3104552999999999,9.835556
2018-12-13,04:28:38.041,-0.26371765,1.2936858999999998,9.828384
2018-12-13,04:28:38.043,-0.26371765,1.281723,9.835556
2018-12-13,04:28:38.045,-0.2756958,1.2841187,9.816406
2018-12-13,04:28:38.047,-0.28527832,1.2889099,9.706268
2018-12-13,04:28:38.121,-0.2876587,1.2410278000000001,9.730225
2018-12-13,04:28:38.123,-0.28048706,1.2410278000000001,9.778107
2018-12-13,04:28:38.124,-0.28527832,1.2793274,9.727829
2018-12-13,04:28:38.124,-0.2541504,1.3056641000000002,9.718246
2018-12-13,04:28:38.203,-0.28288270000000004,1.2649689,9.825989
2018-12-13,04:28:38.206,-0.31399536,1.2290497,9.852325
2018-12-13,04:28:38.207,-0.29244995,1.2697448999999998,9.775711
2018-12-13,04:28:38.209,-0.29484558,1.3080597,9.768524000000001
2018-12-13,04:28:38.284,-0.30682373,1.2793274,9.897812
2018-12-13,04:28:38.287,-0.29005432,1.1907348999999998,10.041458
2018-12-13,04:28:38.289,-0.25894165,1.1955261000000001,9.995972
2018-12-13,04:28:38.291,-0.26850890000000005,1.3008728,9.828384
2018-12-13,04:28:38.368,-0.29963684,1.336792,9.708664
2018-12-13,04:28:38.370,-0.31159973,1.2889099,9.727829
2018-12-13,04:28:38.372,-0.3044281,1.2625732,9.780502
2018-12-13,04:28:38.373,-0.28048706,1.3080597,9.718246
2018-12-13,04:28:38.446,-0.28527832,1.312851,9.696701
2018-12-13,04:28:38.448,-0.28527832,1.2913055,9.727829
2018-12-13,04:28:38.450,-0.27090454,1.2505951000000002,9.852325
2018-12-13,04:28:38.451,-0.2541504,1.2505951000000002,9.943298
2018-12-13,04:28:38.529,-0.27809143,1.257782,9.9002075
2018-12-13,04:28:38.532,-0.27809143,1.2505951000000002,9.8211975
2018-12-13,04:28:38.533,-0.29963684,1.2529907,9.79007
2018-12-13,04:28:38.535,-0.3044281,1.2793274,9.727829
2018-12-13,04:28:38.609,-0.29005432,1.3080597,9.687119000000001
2018-12-13,04:28:38.611,-0.2541504,1.3152466,9.65361
2018-12-13,04:28:38.612,-0.24696350000000003,1.3176421999999999,9.706268
2018-12-13,04:28:38.614,-0.23738098,1.3080597,9.768524000000001
2018-12-13,04:28:38.689,-0.26611328,1.2649689,9.833176
2018-12-13,04:28:38.692,-0.2876587,1.2434082,9.840347
2018-12-13,04:28:38.693,-0.28288270000000004,1.2865143,9.818802
2018-12-13,04:28:38.695,-0.31399536,1.3008728,9.804443
2018-12-13,04:28:38.771,-0.3331604,1.2529907,9.83078
2018-12-13,04:28:38.773,-0.35231018,1.2314453,9.878662
2018-12-13,04:28:38.775,-0.34033203,1.281723,9.8211975
2018-12-13,04:28:38.776,-0.37385559999999995,1.3176421999999999,9.773315
2018-12-13,04:28:38.852,-0.39779663,1.3343964,9.744583
2018-12-13,04:28:38.854,-0.37385559999999995,1.2936858999999998,9.785278
2018-12-13,04:28:38.855,-0.40977478,1.2003173999999999,9.811615
2018-12-13,04:28:38.857,-0.39779663,1.2266540000000001,9.754166
2018-12-13,04:28:38.936,-0.33076477,1.2936858999999998,9.701492
2018-12-13,04:28:38.938,-0.32118225,1.2865143,9.720642
2018-12-13,04:28:38.940,-0.2756958,1.2721405000000001,9.7421875
2018-12-13,04:28:38.942,-0.26611328,1.2769318,9.744583
2018-12-13,04:28:39.014,-0.3044281,1.2481995000000001,9.735000999999999
2018-12-13,04:28:39.016,-0.34033203,1.2218628,9.718246
2018-12-13,04:28:39.018,-0.36427307,1.2362366000000002,9.699097
2018-12-13,04:28:39.020,-0.3618927,1.2410278000000001,9.703888000000001
2018-12-13,04:28:39.095,-0.35949707,1.233841,9.689513999999999
2018-12-13,04:28:39.097,-0.37385559999999995,1.2697448999999998,9.675156
2018-12-13,04:28:39.099,-0.36906433,1.2865143,9.723038
2018-12-13,04:28:39.101,-0.37385559999999995,1.2936858999999998,9.773315
2018-12-13,04:28:39.175,-0.3618927,1.2984772,9.809219
2018-12-13,04:28:39.178,-0.35949707,1.2841187,9.873871000000001
2018-12-13,04:28:39.179,-0.37625122,1.2673492,9.926544
2018-12-13,04:28:39.181,-0.38821409999999995,1.2673492,9.914566
2018-12-13,04:28:39.258,-0.37385559999999995,1.2769318,9.861892999999998
2018-12-13,04:28:39.260,-0.38104248,1.281723,9.802048
2018-12-13,04:28:39.261,-0.35231018,1.2889099,9.797255999999999
2018-12-13,04:28:39.263,-0.34751892,1.2481995000000001,9.811615
2018-12-13,04:28:39.338,-0.34512329999999997,1.2266540000000001,9.823592999999999
2018-12-13,04:28:39.341,-0.34512329999999997,1.202713,9.8211975
2018-12-13,04:28:39.343,-0.33555603,1.2242583999999999,9.735000999999999
2018-12-13,04:28:39.345,-0.36906433,1.2314453,9.708664
2018-12-13,04:28:39.420,-0.39060974,1.2146912,9.749374000000001
2018-12-13,04:28:39.422,-0.39060974,1.1907348999999998,9.823592999999999
2018-12-13,04:28:39.425,-0.37864685,1.1811676000000002,9.852325
2018-12-13,04:28:39.427,-0.37385559999999995,1.1979218,9.782883
2018-12-13,04:28:39.505,-0.3666687,1.2386322,9.756561
2018-12-13,04:28:39.508,-0.36906433,1.2458038,9.794861000000001
2018-12-13,04:28:39.510,-0.35231018,1.2122955,9.885834
2018-12-13,04:28:39.511,-0.39779663,1.1548308999999999,9.907394
2018-12-13,04:28:39.581,-0.42413329999999994,1.2051086000000002,9.739792
2018-12-13,04:28:39.583,-0.37385559999999995,1.281723,9.69191
2018-12-13,04:28:39.585,-0.35231018,1.257782,9.797255999999999
2018-12-13,04:28:39.586,-0.33076477,1.2314453,9.825989
2018-12-13,04:28:39.662,-0.3044281,1.1811676000000002,9.835556
2018-12-13,04:28:39.664,-0.32118225,1.1620177999999999,9.818802
2018-12-13,04:28:39.665,-0.34991455,1.202713,9.804443
2018-12-13,04:28:39.666,-0.37145996,1.1907348999999998,9.814011
2018-12-13,04:28:39.743,-0.37145996,1.1835632,9.794861000000001
2018-12-13,04:28:39.745,-0.35710144,1.1596222,9.816406
2018-12-13,04:28:39.747,-0.36906433,1.1644135,9.825989
2018-12-13,04:28:39.749,-0.34272766,1.2242583999999999,9.775711
2018-12-13,04:28:39.826,-0.33076477,1.257782,9.754166
2018-12-13,04:28:39.828,-0.3044281,1.2745361000000002,9.802048
2018-12-13,04:28:39.830,-0.29484558,1.2865143,9.802048
2018-12-13,04:28:39.831,-0.31159973,1.2529907,9.837952
2018-12-13,04:28:39.905,-0.3379364,1.2194672,9.825989
2018-12-13,04:28:39.907,-0.3547058,1.2051086000000002,9.799652
2018-12-13,04:28:39.908,-0.35949707,1.2242583999999999,9.749374000000001
2018-12-13,04:28:39.910,-0.37625122,1.2242583999999999,9.802048
2018-12-13,04:28:39.988,-0.34272766,1.1811676000000002,9.83078
2018-12-13,04:28:39.990,-0.316391,1.1859589,9.818802
2018-12-13,04:28:39.991,-0.31159973,1.2194672,9.768524000000001
2018-12-13,04:28:39.993,-0.316391,1.2410278000000001,9.75177
2018-12-13,04:28:40.068,-0.32118225,1.2458038,9.758942
2018-12-13,04:28:40.070,-0.30682373,1.2458038,9.761337
2018-12-13,04:28:40.071,-0.316391,1.2098999,9.780502
2018-12-13,04:28:40.073,-0.29963684,1.2481995000000001,9.730225
2018-12-13,04:28:40.150,-0.31159973,1.2553864,9.737396
2018-12-13,04:28:40.152,-0.34512329999999997,1.2266540000000001,9.785278
2018-12-13,04:28:40.153,-0.29963684,1.2314453,9.818802
2018-12-13,04:28:40.155,-0.29963684,1.1859589,9.871475
2018-12-13,04:28:40.230,-0.37385559999999995,1.1548308999999999,9.833176
2018-12-13,04:28:40.232,-0.3834381,1.2075042999999999,9.725433
2018-12-13,04:28:40.234,-0.37145996,1.233841,9.773315
2018-12-13,04:28:40.235,-0.38583374,1.2194672,9.847534
2018-12-13,04:28:40.312,-0.3666687,1.2242583999999999,9.859497
2018-12-13,04:28:40.314,-0.3547058,1.2075042999999999,9.84993
2018-12-13,04:28:40.316,-0.3547058,1.2146912,9.799652
2018-12-13,04:28:40.317,-0.37385559999999995,1.2434082,9.818802
2018-12-13,04:28:40.393,-0.36906433,1.2625732,9.797255999999999
2018-12-13,04:28:40.395,-0.3547058,1.2122955,9.833176
2018-12-13,04:28:40.397,-0.38104248,1.147644,9.86908
2018-12-13,04:28:40.398,-0.38104248,1.1572266000000002,9.859497
2018-12-13,04:28:40.474,-0.36427307,1.2218628,9.754166
2018-12-13,04:28:40.476,-0.34751892,1.2841187,9.677551
2018-12-13,04:28:40.478,-0.35231018,1.2505951000000002,9.737396
2018-12-13,04:28:40.479,-0.3618927,1.1715851000000002,9.842742999999999
2018-12-13,04:28:40.557,-0.37864685,1.1141205,9.878662
2018-12-13,04:28:40.559,-0.39060974,1.1452483999999998,9.8211975
2018-12-13,04:28:40.561,-0.40019226,1.178772,9.782883
2018-12-13,04:28:40.564,-0.40498352,1.1715851000000002,9.780502
2018-12-13,04:28:40.639,-0.36906433,1.1572266000000002,9.864288
2018-12-13,04:28:40.642,-0.34991455,1.1883545,9.835556
2018-12-13,04:28:40.645,-0.3259735,1.2218628,9.746979
2018-12-13,04:28:40.647,-0.35949707,1.257782,9.758942
2018-12-13,04:28:40.717,-0.36427307,1.2889099,9.785278
2018-12-13,04:28:40.719,-0.36906433,1.2481995000000001,9.818802
2018-12-13,04:28:40.721,-0.39779663,1.1644135,9.873871000000001
2018-12-13,04:28:40.723,-0.39060974,1.1763763,9.895416
2018-12-13,04:28:40.798,-0.3618927,1.2146912,9.840347
2018-12-13,04:28:40.800,-0.39300537,1.2146912,9.825989
2018-12-13,04:28:40.802,-0.37145996,1.2601776000000002,9.703888000000001
2018-12-13,04:28:40.804,-0.29963684,1.3008728,9.581772
2018-12-13,04:28:40.880,-0.316391,1.2553864,9.617691
2018-12-13,04:28:40.882,-0.41217040000000005,1.1332855,9.749374000000001
2018-12-13,04:28:40.883,-0.38821409999999995,1.1141205,9.852325
2018-12-13,04:28:40.885,-0.36427307,1.1237030000000001,9.952881
2018-12-13,04:28:40.960,-0.3834381,1.1500397,9.976822
2018-12-13,04:28:40.963,-0.37864685,1.1859589,9.945694
2018-12-13,04:28:40.966,-0.33555603,1.233841,9.854721000000001
2018-12-13,04:28:40.968,-0.3259735,1.312851,9.761337
2018-12-13,04:28:41.041,-0.32836914,1.3391876,9.713455
2018-12-13,04:28:41.043,-0.34033203,1.281723,9.766129
2018-12-13,04:28:41.045,-0.34991455,1.2146912,9.818802
2018-12-13,04:28:41.049,-0.36427307,1.2003173999999999,9.802048
2018-12-13,04:28:41.126,-0.395401,1.2481995000000001,9.718246
2018-12-13,04:28:41.128,-0.40737915,1.2242583999999999,9.763733
2018-12-13,04:28:41.130,-0.41217040000000005,1.1620177999999999,9.854721000000001
2018-12-13,04:28:41.131,-0.38583374,1.1715851000000002,9.859497
2018-12-13,04:28:41.267,-0.3666687,1.2386322,9.737396
2018-12-13,04:28:41.268,-0.3618927,1.3104552999999999,9.636841
2018-12-13,04:28:41.269,-0.37864685,1.2769318,9.679947
2018-12-13,04:28:41.269,-0.35231018,1.2481995000000001,9.77092
2018-12-13,04:28:41.283,-0.33555603,1.233841,9.854721000000001
2018-12-13,04:28:41.284,-0.31878662,1.2434082,9.854721000000001
2018-12-13,04:28:41.285,-0.30682373,1.2936858999999998,9.768524000000001
2018-12-13,04:28:41.285,-0.32357788,1.3224182,9.730225
2018-12-13,04:28:41.366,-0.34751892,1.2865143,9.84993
2018-12-13,04:28:41.368,-0.33555603,1.2481995000000001,9.881058
2018-12-13,04:28:41.369,-0.34033203,1.281723,9.797255999999999
2018-12-13,04:28:41.371,-0.37625122,1.2625732,9.77092
2018-12-13,04:28:41.447,-0.395401,1.2505951000000002,9.782883
2018-12-13,04:28:41.449,-0.35710144,1.3008728,9.732605
2018-12-13,04:28:41.450,-0.37864685,1.2673492,9.739792
2018-12-13,04:28:41.452,-0.41934204,1.2865143,9.773315
2018-12-13,04:28:41.528,-0.39060974,1.2913055,9.778107
2018-12-13,04:28:41.530,-0.43132020000000004,1.233841,9.7421875
2018-12-13,04:28:41.531,-0.42892456,1.2146912,9.646423
2018-12-13,04:28:41.533,-0.38583374,1.2601776000000002,9.617691
2018-12-13,04:28:41.610,-0.35949707,1.2410278000000001,9.727829
2018-12-13,04:28:41.612,-0.32118225,1.2170715,9.854721000000001
2018-12-13,04:28:41.613,-0.2876587,1.2314453,9.83078
2018-12-13,04:28:41.614,-0.29484558,1.2913055,9.761337
2018-12-13,04:28:41.692,-0.31878662,1.3200226000000002,9.727829
2018-12-13,04:28:41.694,-0.36427307,1.2960815,9.75177
2018-12-13,04:28:41.696,-0.3618927,1.2936858999999998,9.79007
2018-12-13,04:28:41.698,-0.34272766,1.2625732,9.825989
2018-12-13,04:28:41.771,-0.3618927,1.2625732,9.84993
2018-12-13,04:28:41.773,-0.3547058,1.3320007,9.727829
2018-12-13,04:28:41.775,-0.33076477,1.3679199,9.634445
2018-12-13,04:28:41.776,-0.31878662,1.3224182,9.694305
2018-12-13,04:28:41.852,-0.38104248,1.1356812,9.998367
2018-12-13,04:28:41.854,-0.37385559999999995,1.0949707,10.106110000000001
2018-12-13,04:28:41.856,-0.37864685,1.1979218,9.950485
2018-12-13,04:28:41.857,-0.40258790000000005,1.281723,9.773315
2018-12-13,04:28:41.933,-0.39779663,1.3056641000000002,9.744583
2018-12-13,04:28:41.935,-0.37385559999999995,1.3008728,9.792465
2018-12-13,04:28:41.937,-0.34033203,1.2721405000000001,9.754166
2018-12-13,04:28:41.938,-0.316391,1.2913055,9.71106
2018-12-13,04:28:42.014,-0.31399536,1.2889099,9.715850999999999
2018-12-13,04:28:42.015,-0.3259735,1.2721405000000001,9.746979
