date,time,UE2_acc_x,UE2_acc_y,UE2_acc_z
2018-12-13,04:22:37.725,0.23342896,1.831955,9.104065
2018-12-13,04:22:37.726,0.14483643,1.7984314,9.111252
2018-12-13,04:22:37.772,-0.046691895,1.8271636999999998,9.388977
2018-12-13,04:22:37.774,-0.28851318,1.721817,9.614044
2018-12-13,04:22:37.810,-0.15443420000000002,1.4632416000000001,11.151108
2018-12-13,04:22:37.811,0.015548706,1.5925293,9.705017
2018-12-13,04:22:37.842,0.101745605,1.8271636999999998,9.20224
2018-12-13,04:22:37.843,0.14004517,1.721817,9.661926
2018-12-13,04:22:37.862,0.30046082,1.6523895,9.942047
2018-12-13,04:22:37.885,0.31243896,1.7457580000000001,9.420105
2018-12-13,04:22:37.901,0.17596436,1.7625122,9.3506775
2018-12-13,04:22:37.921,0.18315125,1.697876,9.8367
2018-12-13,04:22:37.941,0.23342896,1.7002716,9.637985
2018-12-13,04:22:37.960,0.29327393,1.6691436999999998,9.317153999999999
2018-12-13,04:22:37.980,0.35313416,1.5901337,9.740936
2018-12-13,04:22:38.000,0.35792542,1.6140747,9.973175
2018-12-13,04:22:38.020,0.33638,1.7146301,9.535034
2018-12-13,04:22:38.039,0.33398438,1.752945,9.405746
2018-12-13,04:22:38.059,0.53749084,1.9612427,10.229355
2018-12-13,04:22:38.079,0.6260680999999999,2.2245939999999997,10.384964
2018-12-13,04:22:38.099,0.010757446,2.0091248,9.803177
2018-12-13,04:22:38.118,0.25737,1.7649078,10.090485000000001
2018-12-13,04:22:38.138,0.78408813,2.3538818,9.781630999999999
2018-12-13,04:22:38.157,0.35313416,2.4161377,9.946838
2018-12-13,04:22:38.180,0.14244079999999998,2.0809479,9.24054
2018-12-13,04:22:38.197,0.38905334,2.1623535,9.139984
2018-12-13,04:22:38.217,0.6117096,2.3467102000000004,9.001128999999999
2018-12-13,04:22:38.236,0.90141296,2.5334472999999997,8.70903
2018-12-13,04:22:38.256,0.80563354,2.7345580000000003,9.719375999999999
2018-12-13,04:22:38.276,0.6883239999999999,2.5933075,9.391373
2018-12-13,04:22:38.296,0.40820312,2.4664154,7.9764100000000004
2018-12-13,04:22:38.315,0.1927185,2.3371277000000004,7.746567
2018-12-13,04:22:38.335,0.118499756,2.4185333,8.914932
2018-12-13,04:22:38.355,-0.1831665,2.3490906000000003,10.217377
2018-12-13,04:22:38.375,-0.104156494,2.2581177,9.264481
2018-12-13,04:22:38.394,0.23582458,2.3945923,8.795227
2018-12-13,04:22:38.414,0.33877563,2.4879607999999998,8.730576
2018-12-13,04:22:38.434,0.3770752,2.552597,8.433701
2018-12-13,04:22:38.454,0.5638274999999999,2.3993683,9.614044
2018-12-13,04:22:38.473,0.5398864999999999,1.8822327,11.402512
2018-12-13,04:22:38.493,0.48002625,1.5350647,10.016266
2018-12-13,04:22:38.513,0.87268066,1.4752197,10.363419
2018-12-13,04:22:38.532,1.040268,1.4081726,11.163086
2018-12-13,04:22:38.552,1.2246246,1.618866,10.531021
2018-12-13,04:22:38.572,1.2270203000000002,1.8271636999999998,9.702621
2018-12-13,04:22:38.592,1.2413788000000001,1.9540558000000001,9.736145
2018-12-13,04:22:38.612,1.2820892,2.061798,9.331528
2018-12-13,04:22:38.631,1.222229,2.1958618,9.005905
2018-12-13,04:22:38.651,1.2677155,2.262909,8.9747925
2018-12-13,04:22:38.671,1.0498505,2.0641936999999997,8.996338
2018-12-13,04:22:38.690,0.77212524,1.6523895,9.573334
2018-12-13,04:22:38.710,0.7409973000000001,1.4919738999999999,10.143158
2018-12-13,04:22:38.730,0.7194519,1.4321136,9.968384
2018-12-13,04:22:38.749,0.5925598000000001,1.326767,9.886978
2018-12-13,04:22:38.769,0.47283936,1.3195953,10.121613
2018-12-13,04:22:38.789,0.39382935,1.4321136,10.255676
2018-12-13,04:22:38.809,0.3698883,1.5542296999999998,10.305969000000001
2018-12-13,04:22:38.829,0.44410706,1.6906891,10.009079
2018-12-13,04:22:38.848,0.47763062,1.6739349,9.7146
2018-12-13,04:22:38.868,0.40341187,1.350708,9.851059
2018-12-13,04:22:38.888,0.20469666,0.97961426,10.648330999999999
2018-12-13,04:22:38.907,0.13764954,0.816803,10.734528
2018-12-13,04:22:38.927,0.16877747,0.835968,10.480742999999999
2018-12-13,04:22:38.947,0.22624207,0.90779114,10.226958999999999
2018-12-13,04:22:38.967,0.16877747,0.9053955,9.901337
2018-12-13,04:22:38.986,0.06103515599999999,0.83117676,9.810364
2018-12-13,04:22:39.006,0.051467896,0.82159424,9.781630999999999
2018-12-13,04:22:39.026,0.015548706,0.7856903000000001,9.676285
2018-12-13,04:22:39.046,-0.094573975,0.7904663000000001,9.539810000000001
2018-12-13,04:22:39.065,-0.23823547,0.9317322,9.391373
2018-12-13,04:22:39.085,-0.2621765,0.9939728000000001,9.101685
2018-12-13,04:22:39.105,-0.33639526,0.92214966,9.247726
2018-12-13,04:22:39.125,-0.40104675,0.9820099,9.551788
2018-12-13,04:22:39.144,-0.42019653,1.0562286,9.527847
2018-12-13,04:22:39.164,-0.34597778,1.0729828000000001,9.499115
2018-12-13,04:22:39.184,-0.22625732,1.156784,9.597275
2018-12-13,04:22:39.203,-0.1616211,1.3052216,9.388977
2018-12-13,04:22:39.223,-0.23583984,1.4440918,9.408142
2018-12-13,04:22:39.243,-0.27893066,1.424942,9.690659
2018-12-13,04:22:39.263,-0.18795776,1.508728,9.580521000000001
2018-12-13,04:22:39.283,-0.017959595,1.7313995,9.384201
2018-12-13,04:22:39.302,0.0011901855,1.8415221999999998,8.972397
2018-12-13,04:22:39.322,-0.015579224,1.9037781000000003,8.771286
2018-12-13,04:22:39.341,0.08497619999999999,1.8654633000000003,8.618041999999999
2018-12-13,04:22:39.361,0.07061767599999999,1.7433624,9.228577
2018-12-13,04:22:39.381,0.063430786,1.7744904,9.566147
2018-12-13,04:22:39.401,0.18075562,1.8582916,9.305191
2018-12-13,04:22:39.420,0.108932495,1.8056183000000001,9.39856
2018-12-13,04:22:39.440,0.065826416,1.7505493000000003,9.748108
2018-12-13,04:22:39.460,0.065826416,1.8104095000000002,10.092880000000001
2018-12-13,04:22:39.480,0.104141235,1.8391266,9.786423
2018-12-13,04:22:39.499,0.12329101599999999,1.7936401000000002,9.937256
2018-12-13,04:22:39.519,0.19990539999999998,1.6212616000000002,10.277237
2018-12-13,04:22:39.539,0.26693726,1.4464874,10.787201
2018-12-13,04:22:39.559,0.37467957,1.2980499,10.983520500000001
2018-12-13,04:22:39.578,0.41059875,1.2501526,10.961975
2018-12-13,04:22:39.598,0.5111542,1.2764893,10.906906
2018-12-13,04:22:39.618,0.72662354,1.4393004999999999,10.945221
2018-12-13,04:22:39.638,0.9588623,1.7002716,10.576508
2018-12-13,04:22:39.657,1.0761871,1.8511046999999998,10.03302
2018-12-13,04:22:39.677,1.1456146,1.7146301,9.843886999999999
2018-12-13,04:22:39.697,1.0857544,1.2956543,9.843886999999999
2018-12-13,04:22:39.717,0.9732360999999999,0.8575134,10.056961
2018-12-13,04:22:39.736,0.9253540000000001,0.67315674,10.200623
2018-12-13,04:22:39.756,0.9756316999999999,0.88145447,9.918106
2018-12-13,04:22:39.776,1.0713959,1.1136932,9.400955
2018-12-13,04:22:39.796,1.1096953999999999,1.1495971999999999,9.139984
2018-12-13,04:22:39.815,1.0929413000000001,1.1160888999999998,8.888596000000001
2018-12-13,04:22:39.835,1.004364,1.0753784,8.598892
2018-12-13,04:22:39.855,0.84394836,1.1136932,8.697052000000001
2018-12-13,04:22:39.874,0.72184753,1.0682068,8.653961
2018-12-13,04:22:39.896,0.6476135000000001,0.8551178,9.008301
2018-12-13,04:22:39.914,0.59973145,0.7785034000000001,9.539810000000001
2018-12-13,04:22:39.934,0.5255126999999999,0.94369507,9.745712
2018-12-13,04:22:39.953,0.5039673,1.2310028,9.199844
2018-12-13,04:22:39.975,0.46327209999999996,1.4345093,8.637207
2018-12-13,04:22:39.995,0.40820312,1.5757751,8.570160000000001
2018-12-13,04:22:40.016,0.40101624,1.6906891,8.656357
2018-12-13,04:22:40.035,0.44650270000000003,1.7960358,8.555800999999999
2018-12-13,04:22:40.055,0.36032104,1.7840729,8.548614500000001
2018-12-13,04:22:40.074,0.29327393,1.6164703,9.065764999999999
2018-12-13,04:22:40.093,0.30046082,1.5949249,9.798386
2018-12-13,04:22:40.113,0.32200623,1.6595612000000002,10.030624000000001
2018-12-13,04:22:40.133,0.32440186,1.7074585,9.894165
2018-12-13,04:22:40.153,0.42974854,1.5925293,10.325119
2018-12-13,04:22:40.172,0.43693542,1.3243866000000002,11.124786
2018-12-13,04:22:40.192,0.46566772,1.1472015,11.83107
2018-12-13,04:22:40.211,0.2908783,1.3100128,11.859802
2018-12-13,04:22:40.234,0.09216308599999999,1.7864532,11.232513
2018-12-13,04:22:40.251,0.025131226,2.121643,10.511856
2018-12-13,04:22:40.271,0.029922485,1.8343506,10.504684
2018-12-13,04:22:40.291,-0.19514465,0.86468506,11.134354
2018-12-13,04:22:40.311,-0.48243713,-0.0020141601999999997,11.814316
2018-12-13,04:22:40.333,-0.56144714,-0.23663330000000002,11.828674000000001
2018-12-13,04:22:40.350,-0.47047424,0.15361023,10.645935
2018-12-13,04:22:40.370,-0.28851318,0.6516113,9.173508
2018-12-13,04:22:40.390,-0.19992065,0.9963684000000002,8.31398
2018-12-13,04:22:40.409,-0.08979797,1.0251006999999999,7.978790299999999
2018-12-13,04:22:40.429,0.111312866,0.7210388000000001,8.091324
2018-12-13,04:22:40.450,0.111312866,0.49359129999999996,8.768889999999999
2018-12-13,04:22:40.468,0.044281006,0.3571167,9.317153999999999
2018-12-13,04:22:40.488,0.034698486,0.23741149999999997,9.432083
2018-12-13,04:22:40.508,0.087371826,0.21347046,9.666718
2018-12-13,04:22:40.527,0.21665955,0.34754944,9.532639
2018-12-13,04:22:40.546,0.30525208,0.62527466,9.104065
2018-12-13,04:22:40.566,0.38186646,0.97242737,8.685089
2018-12-13,04:22:40.586,0.42735290000000004,1.2932587,8.412155
2018-12-13,04:22:40.606,0.35552979999999995,1.4991608,8.299622
2018-12-13,04:22:40.625,0.26693726,1.5590057,8.424118
2018-12-13,04:22:40.645,0.2286377,1.6092833999999998,8.661147999999999
2018-12-13,04:22:40.665,0.30525208,1.6595612000000002,8.960419
2018-12-13,04:22:40.687,0.33398438,1.6380157,9.369827
2018-12-13,04:22:40.705,0.42974854,1.4967651000000002,9.958801
2018-12-13,04:22:40.725,0.6236725000000001,1.2214355,10.701004
2018-12-13,04:22:40.745,0.7960663,0.8694763000000001,11.570099
2018-12-13,04:22:40.766,0.9301299999999999,0.8000488,12.151886
2018-12-13,04:22:40.784,1.0690002,1.1065063,11.957962
2018-12-13,04:22:40.805,1.2988434,1.4153594999999999,11.278015
2018-12-13,04:22:40.823,1.4496765,1.3938141000000002,11.55574
2018-12-13,04:22:40.843,1.2485657,0.835968,11.766418
2018-12-13,04:22:40.867,1.0307007,0.25656128,12.0681
2018-12-13,04:22:40.882,0.9109802,0.10812378,11.644318
2018-12-13,04:22:40.902,0.9660492,0.33796692,10.375397
2018-12-13,04:22:41.010,1.0737915,0.8000488,9.029846000000001
2018-12-13,04:22:41.011,1.1815338,1.2788848999999998,8.012314
2018-12-13,04:22:41.012,1.2174377,1.5614013999999998,7.4975586
2018-12-13,04:22:41.012,1.1168823,1.5733795,7.387436
2018-12-13,04:22:41.013,0.90379333,1.2956543,7.792053
2018-12-13,04:22:41.033,0.6476135000000001,0.9149780000000001,8.371445
2018-12-13,04:22:41.039,0.42974854,0.5510559,9.166321
2018-12-13,04:22:41.059,0.24539185,0.25177002,9.901337
2018-12-13,04:22:41.081,0.26216125,0.19432068,10.291595
2018-12-13,04:22:41.100,0.35552979999999995,0.45527650000000003,9.863037
2018-12-13,04:22:41.119,0.35552979999999995,0.840744,9.051407000000001
2018-12-13,04:22:41.140,0.32200623,1.2286072000000001,8.335541000000001
2018-12-13,04:22:41.159,0.34355164,1.5542296999999998,7.8878174
2018-12-13,04:22:41.179,0.39144897,1.7433624,7.871063
2018-12-13,04:22:41.200,0.31721497,1.8151855,8.191879
2018-12-13,04:22:41.218,0.28131104,1.7744904,8.584534
2018-12-13,04:22:41.238,0.31243896,1.6906891,9.049011
2018-12-13,04:22:41.258,0.25497437,1.4799957000000001,9.877396000000001
2018-12-13,04:22:41.277,0.075408936,1.1998749,11.000275
2018-12-13,04:22:41.298,0.096954346,1.1472015,11.687424
2018-12-13,04:22:41.318,0.13526917,1.1256561,12.0034485
2018-12-13,04:22:41.337,-0.0036010741999999997,1.2405853,12.185410000000001
2018-12-13,04:22:41.357,-0.111343384,1.6068878,11.993881
2018-12-13,04:22:41.376,-0.11373901,1.7290039000000001,11.610809
2018-12-13,04:22:41.397,-0.24063110000000001,1.429718,11.742477000000001
2018-12-13,04:22:41.417,-0.49201965,0.79525757,12.032181
2018-12-13,04:22:41.435,-0.78889465,0.20867919999999998,12.309906
2018-12-13,04:22:41.455,-0.9301605,0.05784607,11.294769
2018-12-13,04:22:41.475,-0.91578674,0.39303590000000005,9.853455
2018-12-13,04:22:41.495,-0.8487549000000001,0.93891907,8.457642
2018-12-13,04:22:41.518,-0.7697449000000001,1.5135193,7.5358734
2018-12-13,04:22:41.535,-0.7218628,1.7313995,7.1168823
2018-12-13,04:22:41.554,-0.7242584,1.4560547,7.186310000000001
2018-12-13,04:22:41.574,-0.6643982,0.9915924,7.748947
2018-12-13,04:22:41.593,-0.5518799,0.5845642,8.680297999999999
2018-12-13,04:22:41.613,-0.56863403,0.29248047,9.558975
2018-12-13,04:22:41.634,-0.44174194,0.10572815,9.910919
2018-12-13,04:22:41.653,-0.058670044000000005,0.23741149999999997,9.827117999999999
2018-12-13,04:22:41.672,0.36032104,0.5342865,9.108856
2018-12-13,04:22:41.692,0.6404419,0.816803,8.376236
2018-12-13,04:22:41.711,0.8247985999999999,1.1017151,8.079361
2018-12-13,04:22:41.732,0.8391571,1.3291626,8.148788
2018-12-13,04:22:41.751,0.7816925,1.4321136,8.359482
2018-12-13,04:22:41.771,0.66677856,1.5374603,8.61087
2018-12-13,04:22:41.791,0.6883239999999999,1.7433624,9.111252
2018-12-13,04:22:41.811,0.87268066,1.8056183000000001,9.669098
2018-12-13,04:22:41.830,0.97084045,1.6356201000000001,10.52623
2018-12-13,04:22:41.850,0.9445038,1.3076172,11.972321
2018-12-13,04:22:41.869,0.93492126,1.1184844999999999,12.867752000000001
2018-12-13,04:22:41.890,1.08815,1.4129638999999998,12.922821
2018-12-13,04:22:41.908,1.4281311,1.800827,12.30751
2018-12-13,04:22:41.929,1.5358733999999998,1.8175811999999998,11.972321
2018-12-13,04:22:41.950,1.2964478000000002,1.4416962,11.852615
2018-12-13,04:22:41.968,1.119278,0.9604645,11.586853
2018-12-13,04:22:41.988,0.98999023,0.6635741999999999,11.148727000000001
2018-12-13,04:22:42.008,0.87268066,0.6851349,10.217377
2018-12-13,04:22:42.027,0.88464355,0.87187195,9.101685
2018-12-13,04:22:42.047,0.96125793,0.98680115,8.570160000000001
2018-12-13,04:22:42.068,1.0666046,1.1663666000000001,8.067383
2018-12-13,04:22:42.086,1.119278,1.3746643,7.5885468
2018-12-13,04:22:42.106,1.0761871,1.3243866000000002,7.466446
2018-12-13,04:22:42.126,0.9397125,1.0251006999999999,7.8399353000000005
2018-12-13,04:22:42.145,0.8176116999999999,0.6970978,8.565384
2018-12-13,04:22:42.166,0.6691741999999999,0.39303590000000005,9.178299
2018-12-13,04:22:42.185,0.54945374,0.37628174,9.463196
2018-12-13,04:22:42.205,0.45129395,0.56062317,9.329132000000001
2018-12-13,04:22:42.224,0.28370667,0.6851349,9.168716
2018-12-13,04:22:42.245,0.18792725,1.0131378,8.941269
2018-12-13,04:22:42.268,0.19511414,1.4345093,8.321166999999999
2018-12-13,04:22:42.284,0.25737,1.7960358,7.7178345
2018-12-13,04:22:42.304,0.18792725,2.0402527,7.842331
2018-12-13,04:22:42.324,0.096954346,2.1336212000000003,8.438492
2018-12-13,04:22:42.343,0.21905518,2.0641936999999997,9.027451
2018-12-13,04:22:42.363,0.2501831,1.9133453,10.013869999999999
2018-12-13,04:22:42.383,0.14962769,1.4895782,11.242096
2018-12-13,04:22:42.402,0.12329101599999999,1.1495971999999999,12.312302
2018-12-13,04:22:42.423,0.111312866,1.2980499,12.712128
2018-12-13,04:22:42.443,0.089767456,1.7409668000000003,12.175827
2018-12-13,04:22:42.462,0.19511414,2.0162964,11.313919
2018-12-13,04:22:42.483,0.14244079999999998,1.7601166000000001,11.179839999999999
2018-12-13,04:22:42.501,-0.252594,0.99876404,11.977112
2018-12-13,04:22:42.521,-0.49201965,0.2781067,12.168655000000001
2018-12-13,04:22:42.541,-0.4680786,0.0027770996,11.589249
2018-12-13,04:22:42.561,-0.34358215,0.34036255,10.595657000000001
2018-12-13,04:22:42.583,-0.17597961,0.88864136,9.010696000000001
2018-12-13,04:22:42.600,-0.14964294,1.2908629999999999,7.8447266
2018-12-13,04:22:42.620,-0.21669006,1.4584503,7.868667599999999
2018-12-13,04:22:42.640,-0.22625732,1.3818358999999998,7.8974
2018-12-13,04:22:42.659,-0.17358398,1.0753784,7.792053
2018-12-13,04:22:42.679,-0.14247131,0.7473755,8.223007
2018-12-13,04:22:42.699,-0.27653503,0.39782715,9.072952
2018-12-13,04:22:42.718,-0.2621765,0.18234253,9.831909
2018-12-13,04:22:42.738,0.077804565,0.32121277,9.807967999999999
2018-12-13,04:22:42.758,0.45129395,0.5438689999999999,9.077744000000001
2018-12-13,04:22:42.777,0.65719604,0.7425841999999999,8.586929
2018-12-13,04:22:42.797,0.6212920999999999,1.0634155,9.041824
2018-12-13,04:22:42.817,0.60931396,1.4728241000000002,9.051407000000001
2018-12-13,04:22:42.837,0.7170563,1.7361755,8.64917
2018-12-13,04:22:42.856,0.7122649999999999,1.5949249,9.118439
2018-12-13,04:22:42.876,0.5255126999999999,1.3076172,10.394546499999999
2018-12-13,04:22:42.896,0.44172668,1.1136932,11.232513
2018-12-13,04:22:42.917,0.52072144,0.9628601000000001,11.232513
2018-12-13,04:22:42.935,0.6045227,0.90060425,11.251678
2018-12-13,04:22:42.954,0.6691741999999999,0.8000488,11.196609500000001
2018-12-13,04:22:42.974,0.66438293,0.86468506,11.206177
2018-12-13,04:22:42.994,0.70747375,1.0131378,11.033797999999999
2018-12-13,04:22:43.014,0.7888794,1.0634155,10.789597
2018-12-13,04:22:43.034,0.88464355,0.8910216999999999,10.959579
2018-12-13,04:22:43.054,0.8176116999999999,0.4433136,11.285186999999999
2018-12-13,04:22:43.073,0.66677856,0.13685608,11.282791
2018-12-13,04:22:43.093,0.61650085,0.22305298,10.643539
2018-12-13,04:22:43.114,0.77690125,0.59654236,9.410538
2018-12-13,04:22:43.132,0.82717896,1.0083466,8.479187
2018-12-13,04:22:43.152,0.8583069,1.4321136,8.220612
2018-12-13,04:22:43.172,0.9445038,1.6092833999999998,7.871063
2018-12-13,04:22:43.192,0.8678894,1.5374603,7.653183
2018-12-13,04:22:43.211,0.65719604,1.3171997,7.9716187000000005
2018-12-13,04:22:43.233,0.47763062,1.0825653,8.701842999999998
2018-12-13,04:22:43.251,0.42256165,0.84313965,9.381805
2018-12-13,04:22:43.271,0.341156,0.7545624,9.685867
2018-12-13,04:22:43.291,0.40101624,0.840744,9.666718
2018-12-13,04:22:43.311,0.42016602,1.0897522,9.336304
2018-12-13,04:22:43.330,0.40341187,1.4033813,8.816772
2018-12-13,04:22:43.350,0.45848083,1.7170258000000003,8.383422999999999
2018-12-13,04:22:43.369,0.51594543,1.9181366000000002,8.395386
2018-12-13,04:22:43.389,0.43214417,1.9899596999999998,8.776062
2018-12-13,04:22:43.409,0.37228394,2.0067291000000003,8.958022999999999
2018-12-13,04:22:43.429,0.32440186,1.9516601999999998,9.223785000000001
2018-12-13,04:22:43.452,0.22624207,1.8415221999999998,9.853455
2018-12-13,04:22:43.468,0.14483643,1.6787261999999998,10.554962
2018-12-13,04:22:43.488,0.058654785,1.429718,11.242096
2018-12-13,04:22:43.508,0.027526855,1.2908629999999999,11.764038000000001
2018-12-13,04:22:43.528,-0.06825256,1.3890228,11.98909
2018-12-13,04:22:43.546,-0.15682983,1.6715393,11.759247
2018-12-13,04:22:43.565,-0.14964294,1.8750457999999999,11.182236
2018-12-13,04:22:43.585,-0.111343384,1.7577362,10.808746000000001
2018-12-13,04:22:43.605,-0.13528442,1.2046661,10.638763
2018-12-13,04:22:43.625,-0.37709045,0.57499695,10.732132
2018-12-13,04:22:43.646,-0.6165161,0.42895508,10.677063
2018-12-13,04:22:43.664,-0.5925751,0.7090759,10.054565
2018-12-13,04:22:43.684,-0.49201965,1.0155334,9.072952
2018-12-13,04:22:43.705,-0.4465332,1.2190398999999998,8.634811000000001
2018-12-13,04:22:43.723,-0.3962555,1.3435363999999999,8.316376
2018-12-13,04:22:43.744,-0.22386170000000002,1.3004303,8.005127
2018-12-13,04:22:43.764,-0.070632935,1.1974791999999999,8.105698
2018-12-13,04:22:43.783,-0.056274414,1.108902,8.457642
2018-12-13,04:22:43.803,-0.07781982400000001,1.0514374,8.541428
2018-12-13,04:22:43.822,-0.027542114,1.0083466,8.495941
2018-12-13,04:22:43.842,0.096954346,0.97003174,8.596497
2018-12-13,04:22:43.862,0.21665955,1.1160888999999998,8.673111
2018-12-13,04:22:43.881,0.35552979999999995,1.4177551000000002,8.582138
2018-12-13,04:22:43.902,0.4920044,1.7074585,8.378632000000001
2018-12-13,04:22:43.921,0.6476135000000001,1.8582916,8.249344
2018-12-13,04:22:43.941,0.70028687,1.8989868000000003,8.591721000000001
2018-12-13,04:22:43.961,0.6524048000000001,2.0282744999999998,9.166321
2018-12-13,04:22:43.980,0.70028687,2.0713654,9.570938
2018-12-13,04:22:44.000,0.70747375,1.8989868000000003,10.231735
2018-12-13,04:22:44.020,0.71466064,1.6858978,11.0625305
2018-12-13,04:22:44.039,0.73620605,1.401001,11.802338
2018-12-13,04:22:44.060,0.69311523,1.1472015,12.206955
2018-12-13,04:22:44.080,0.7409973000000001,1.1831207000000001,12.436798
2018-12-13,04:22:44.099,0.89901733,1.4464874,12.467926
2018-12-13,04:22:44.120,1.1647644,1.6739349,11.950775
2018-12-13,04:22:44.140,1.2701111,1.2932587,11.687424
2018-12-13,04:22:44.159,1.1408234,0.43373108,11.685027999999999
2018-12-13,04:22:44.179,0.9468994000000001,0.07460022,11.263641
2018-12-13,04:22:44.199,0.9851989999999999,0.24220276,10.217377
2018-12-13,04:22:44.218,1.0953369,0.677948,9.111252
2018-12-13,04:22:44.238,1.1168823,1.0346832000000001,8.165543
2018-12-13,04:22:44.258,0.9732360999999999,1.3004303,7.9572449999999995
2018-12-13,04:22:44.278,0.7457885999999999,1.4967651000000002,7.519104
2018-12-13,04:22:44.297,0.42974854,1.3770447000000001,7.4161529999999996
2018-12-13,04:22:44.317,0.104141235,1.1424254999999999,7.940490700000001
2018-12-13,04:22:44.336,0.032318115,0.9844055,8.539047
2018-12-13,04:22:44.356,0.077804565,0.9341278000000001,8.855072
2018-12-13,04:22:44.376,0.18315125,0.94129944,8.7066345
2018-12-13,04:22:44.396,0.29806520000000003,1.0442505,8.428908999999999
2018-12-13,04:22:44.416,0.45129395,1.2094573999999998,8.495941
2018-12-13,04:22:44.435,0.38426208,1.4033813,8.548614500000001
2018-12-13,04:22:44.455,0.30525208,1.5853423999999998,8.278075999999999
2018-12-13,04:22:44.475,0.3076477,1.6021118,8.419327000000001
2018-12-13,04:22:44.495,0.18554688,1.4871826000000001,9.262085
2018-12-13,04:22:44.517,0.077804565,1.3674773999999998,10.219772
2018-12-13,04:22:44.535,0.09934997599999999,1.350708,10.894928
2018-12-13,04:22:44.553,0.082595825,1.4393004999999999,11.388138
2018-12-13,04:22:44.573,0.046676635999999994,1.3746643,12.216536999999999
2018-12-13,04:22:44.593,-0.17118835,1.4369048999999998,13.205338000000001
2018-12-13,04:22:44.613,-0.36512756,1.7960358,13.234070000000001
2018-12-13,04:22:44.635,-0.18795776,2.0641936999999997,12.194992
2018-12-13,04:22:44.653,-0.0012054442999999998,1.7146301,11.893311
2018-12-13,04:22:44.672,-0.16641235,0.63246155,12.041763000000001
2018-12-13,04:22:44.692,-0.4465332,-0.09059143,12.044159
2018-12-13,04:22:44.712,-0.66200256,0.019546509,11.129562
2018-12-13,04:22:44.735,-0.67637634,0.44091797,9.31955
2018-12-13,04:22:44.750,-0.56863403,0.6420288000000001,8.177521
2018-12-13,04:22:44.771,-0.56863403,0.7210388000000001,8.266098
2018-12-13,04:22:44.790,-0.48722840000000006,0.7545624,7.993164
2018-12-13,04:22:44.810,-0.23583984,0.677948,7.4161529999999996
2018-12-13,04:22:44.831,-0.06585693,0.60372925,7.5909424
2018-12-13,04:22:44.850,-0.11613464,0.5941466999999999,8.357086
2018-12-13,04:22:44.869,-0.101760864,0.61569214,8.562988
2018-12-13,04:22:44.890,0.16159058,0.61808777,8.438492
2018-12-13,04:22:44.910,0.40341187,0.5151367,8.6276245
2018-12-13,04:22:44.928,0.37228394,0.6132965,9.479965
2018-12-13,04:22:44.948,0.475235,0.8623046999999998,9.695435
2018-12-13,04:22:44.968,0.7338104,1.211853,9.286026
2018-12-13,04:22:44.988,0.9301299999999999,1.3962097,9.142380000000001
2018-12-13,04:22:45.008,0.9971771,1.3626862,9.482361000000001
2018-12-13,04:22:45.028,0.8295745999999999,1.4584503,10.121613
2018-12-13,04:22:45.047,0.81282043,1.5111237,10.729736
2018-12-13,04:22:45.068,0.767334,1.3602905,10.997879
2018-12-13,04:22:45.086,0.6811371,1.0514374,11.572494500000001
2018-12-13,04:22:45.106,0.58058167,0.8551178,12.036972
2018-12-13,04:22:45.128,0.5757904,0.9963684000000002,11.89093
2018-12-13,04:22:45.146,0.7792969,1.3650818,11.151108
2018-12-13,04:22:45.166,0.9516906999999999,1.3650818,10.717758
2018-12-13,04:22:45.185,0.87028503,0.812027,10.84227
2018-12-13,04:22:45.205,0.70747375,0.20628357,11.069717
2018-12-13,04:22:45.225,0.6739501999999999,0.13206482,10.995499
2018-12-13,04:22:45.245,0.9085846,0.36909485,10.116821
2018-12-13,04:22:45.266,1.004364,0.64442444,8.862259
2018-12-13,04:22:45.286,0.8391571,0.9173584000000001,8.345108
2018-12-13,04:22:45.304,0.7625427,1.2286072000000001,8.134414999999999
2018-12-13,04:22:45.324,0.75535583,1.448883,7.655578599999999
2018-12-13,04:22:45.344,0.5853729,1.5135193,7.420944
2018-12-13,04:22:45.363,0.28131104,1.3890228,7.6483917
2018-12-13,04:22:45.383,0.16159058,1.2597351,8.179916
2018-12-13,04:22:45.402,0.26454163,1.3387451000000001,8.697052000000001
2018-12-13,04:22:45.422,0.341156,1.4273223999999998,8.687485
2018-12-13,04:22:45.443,0.18315125,1.5590057,8.48877
2018-12-13,04:22:45.462,0.041885376,1.7170258000000003,8.321166999999999
2018-12-13,04:22:45.483,0.027526855,1.8439178,8.412155
2018-12-13,04:22:45.502,0.120895386,1.9732056,8.713821000000001
2018-12-13,04:22:45.521,0.111312866,1.9779968,9.087311
2018-12-13,04:22:45.540,0.020339966,1.9037781000000003,9.738541
2018-12-13,04:22:45.561,0.020339966,1.8223724,10.128784
2018-12-13,04:22:45.580,-0.013183594,1.6380157,10.868607
2018-12-13,04:22:45.599,-0.1831665,1.4512787,11.629959
2018-12-13,04:22:45.619,-0.25019836,1.2812805,12.168655000000001
2018-12-13,04:22:45.640,-0.3962555,1.3914185,12.728897
2018-12-13,04:22:45.659,-0.36512756,1.8894043000000003,12.171051
2018-12-13,04:22:45.679,-0.14486694,2.0833435000000002,11.177444
2018-12-13,04:22:45.699,-0.18077087,1.5685883,10.880569
2018-12-13,04:22:45.719,-0.49201965,0.67555237,10.981125
2018-12-13,04:22:45.737,-0.6452484,0.40739440000000005,10.940430000000001
2018-12-13,04:22:45.758,-0.48483276,0.6013335999999999,10.325119
2018-12-13,04:22:45.777,-0.3818817,0.7904663000000001,9.59967
2018-12-13,04:22:45.799,-0.3675232,0.816803,9.125625999999999
2018-12-13,04:22:45.818,-0.25738525,0.8072357,8.809586
2018-12-13,04:22:45.836,-0.15443420000000002,0.71624756,8.685089
2018-12-13,04:22:45.856,-0.19035339999999998,0.60372925,8.675507000000001
2018-12-13,04:22:45.876,-0.19035339999999998,0.65400696,8.574950999999999
2018-12-13,04:22:45.896,-0.082611084,0.7904663000000001,8.486374
2018-12-13,04:22:45.916,-0.015579224,0.94369507,8.4145355
2018-12-13,04:22:45.936,0.06103515599999999,1.1927032,8.280472
2018-12-13,04:22:45.955,0.1304779,1.4967651000000002,8.067383
2018-12-13,04:22:45.974,0.1592102,1.6308441,8.009917999999999
2018-12-13,04:22:45.995,0.24539185,1.6595612000000002,8.189484
2018-12-13,04:22:46.017,0.29327393,1.7194214,8.579742
2018-12-13,04:22:46.034,0.24778748,1.8630676,9.0035095
2018-12-13,04:22:46.053,0.22624207,2.013916,9.290817
2018-12-13,04:22:46.074,0.3698883,1.9756011999999998,9.8367
2018-12-13,04:22:46.093,0.39622498,1.7864532,10.7034
2018-12-13,04:22:46.113,0.40820312,1.5997162,11.318710000000001
2018-12-13,04:22:46.135,0.5638274999999999,1.4393004999999999,11.486298
2018-12-13,04:22:46.153,0.6619873000000001,1.5183105,11.725723
2018-12-13,04:22:46.172,0.92056274,1.8917999,11.740082000000001
2018-12-13,04:22:46.192,1.3946075,2.219818,11.333069
2018-12-13,04:22:46.212,1.756134,1.9181366000000002,10.997879
2018-12-13,04:22:46.233,1.6507874,1.1304473999999998,11.026611
2018-12-13,04:22:46.251,1.4808044,0.6348419,10.995499
2018-12-13,04:22:46.271,1.4879913,0.43852234,10.483139
2018-12-13,04:22:46.291,1.4329223999999998,0.464859,9.819946
2018-12-13,04:22:46.311,1.3443298000000001,0.677948,9.128021
2018-12-13,04:22:46.333,1.2126465,0.96525574,8.23497
2018-12-13,04:22:46.351,1.0163269,1.1615753,7.610092
2018-12-13,04:22:46.370,0.65000916,1.1208649,7.696289
2018-12-13,04:22:46.390,0.21665955,0.95806885,8.215819999999999
2018-12-13,04:22:46.409,-0.034729004,0.87905884,8.668335
2018-12-13,04:22:46.429,-0.10894775400000001,0.87905884,8.850280999999999
2018-12-13,04:22:46.449,-0.15922546,1.0011596999999999,8.838318
2018-12-13,04:22:46.468,-0.19035339999999998,1.2070618,8.665939
2018-12-13,04:22:46.488,-0.17837524,1.4752197,8.541428
2018-12-13,04:22:46.508,-0.18556213,1.6739349,8.582138
2018-12-13,04:22:46.527,-0.21669006,1.800827,8.754517
2018-12-13,04:22:46.550,-0.16880798,1.8941956000000002,9.032242
2018-12-13,04:22:46.566,-0.1616211,1.9229279,9.580521000000001
2018-12-13,04:22:46.586,-0.17597961,1.8917999,9.963593
2018-12-13,04:22:46.606,-0.14247131,1.7984314,10.710587
2018-12-13,04:22:46.626,-0.20950317,1.5135193,11.701782000000001
2018-12-13,04:22:46.646,-0.20471191,1.0873566000000001,12.590027000000001
2018-12-13,04:22:46.666,-0.19752502,1.0562286,12.829452499999999
2018-12-13,04:22:46.685,-0.2813263,1.6332245,12.221328999999999
2018-12-13,04:22:46.705,-0.252594,2.2820587000000003,11.014648
2018-12-13,04:22:46.725,-0.20231628,2.1719207999999997,10.365814
2018-12-13,04:22:46.745,-0.37709045,1.2238159,10.619598
2018-12-13,04:22:46.764,-0.6308899,0.5342865,11.084076
2018-12-13,04:22:46.784,-0.66200256,0.40499878,10.62439
2018-12-13,04:22:46.804,-0.544693,0.49119568,9.930069
2018-12-13,04:22:46.823,-0.52075195,0.53189087,9.326736
2018-12-13,04:22:46.843,-0.31245422,0.622879,8.735367
2018-12-13,04:22:46.863,-0.104156494,0.6492157,8.505524000000001
2018-12-13,04:22:46.882,0.025131226,0.46006775,8.586929
2018-12-13,04:22:46.902,0.075408936,0.37628174,8.517487
2018-12-13,04:22:46.922,0.13287354,0.4505005,8.366653
2018-12-13,04:22:46.941,0.28849792,0.7186431999999999,8.261307
2018-12-13,04:22:46.962,0.37947083,1.0418701,7.988372999999999
2018-12-13,04:22:46.985,0.37947083,1.2812805,7.813598599999999
2018-12-13,04:22:47.001,0.48242188,1.3818358999999998,7.813598599999999
2018-12-13,04:22:47.020,0.63565063,1.453659,8.076965
2018-12-13,04:22:47.040,0.7625427,1.5566101,8.474396
2018-12-13,04:22:47.060,0.8463440000000001,1.5494385,8.941269
2018-12-13,04:22:47.079,0.84155273,1.4799957000000001,9.69783
2018-12-13,04:22:47.099,0.87028503,1.2932587,10.796768
2018-12-13,04:22:47.119,1.0307007,1.0729828000000001,11.852615
2018-12-13,04:22:47.139,1.1360321000000002,0.9915924,12.40329
2018-12-13,04:22:47.159,1.1264648000000002,1.1304473999999998,12.34343
2018-12-13,04:22:47.179,1.1096953999999999,1.3195953,11.934021000000001
2018-12-13,04:22:47.201,1.2892609,1.5805511,11.787979
2018-12-13,04:22:47.218,1.5143280000000001,1.5039368,11.888535000000001
2018-12-13,04:22:47.237,1.435318,0.9844055,12.070496
2018-12-13,04:22:47.258,1.2820892,0.52711487,11.960358
2018-12-13,04:22:47.277,1.1073151,0.41218567,11.225342
2018-12-13,04:22:47.297,1.033081,0.5342865,10.32991
2018-12-13,04:22:47.316,0.9660492,0.7713165,9.45842
2018-12-13,04:22:47.336,0.88464355,0.90060425,8.701842999999998
2018-12-13,04:22:47.355,0.8750763,0.9053955,8.433701
2018-12-13,04:22:47.375,0.6883239999999999,0.816803,8.251739500000001
2018-12-13,04:22:47.394,0.42735290000000004,0.81440735,8.225403
2018-12-13,04:22:47.415,0.2908783,0.95806885,8.227798
2018-12-13,04:22:47.434,0.30525208,1.1615753,7.993164
2018-12-13,04:22:47.455,0.36749268,1.345932,7.9117584
2018-12-13,04:22:47.475,0.31961059999999997,1.5135193,8.112869
2018-12-13,04:22:47.494,0.28131104,1.666748,7.921341
2018-12-13,04:22:47.515,0.32200623,1.8511046999999998,7.9476776
2018-12-13,04:22:47.533,0.31721497,1.8774414000000001,8.203857000000001
2018-12-13,04:22:47.553,0.21905518,1.8127898999999998,8.850280999999999
2018-12-13,04:22:47.574,0.111312866,1.8175811999999998,9.422500999999999
2018-12-13,04:22:47.593,0.101745605,1.9468689,9.544601
2018-12-13,04:22:47.613,0.046676635999999994,1.939682,9.973175
2018-12-13,04:22:47.633,-0.094573975,1.7816772,10.892548
2018-12-13,04:22:47.652,-0.080215454,1.6236572,11.665863
2018-12-13,04:22:47.672,-0.061065674,1.6332245,12.094437
2018-12-13,04:22:47.692,-0.22386170000000002,2.1791077000000003,12.001053
2018-12-13,04:22:47.711,-0.104156494,2.638794,11.067322
2018-12-13,04:22:47.733,-0.029937744,2.2461395,10.540588
2018-12-13,04:22:47.752,-0.42259216,1.2022705,10.849442
2018-12-13,04:22:47.771,-0.9684601,0.71624756,11.103226
2018-12-13,04:22:47.791,-1.030716,0.7785034000000001,10.626785
2018-12-13,04:22:47.811,-0.96606445,1.0921478,10.068939
2018-12-13,04:22:47.830,-0.8104553000000001,1.3124083999999998,9.31955
2018-12-13,04:22:47.850,-0.65960693,1.4225464,8.589325
2018-12-13,04:22:47.869,-0.38667297,1.3938141000000002,8.021896
2018-12-13,04:22:47.889,-0.24063110000000001,1.2501526,8.026688
2018-12-13,04:22:47.909,-0.15682983,1.1041107,8.242157
2018-12-13,04:22:47.929,-0.070632935,1.0897522,8.539047
2018-12-13,04:22:47.951,-0.020355225,1.1855163999999998,8.596497
2018-12-13,04:22:47.968,-0.039520264,1.4393004999999999,8.321166999999999
2018-12-13,04:22:47.988,-0.025146484,1.7146301,8.081741000000001
2018-12-13,04:22:48.008,0.108932495,1.8391266,8.1176605
2018-12-13,04:22:48.028,0.29566956,1.9205322,8.31398
2018-12-13,04:22:48.050,0.40341187,1.9253235,8.6826935
2018-12-13,04:22:48.066,0.38426208,1.8774414000000001,9.166321
2018-12-13,04:22:48.086,0.39382935,1.915741,9.511092999999999
2018-12-13,04:22:48.106,0.52072144,1.8917999,10.207794
2018-12-13,04:22:48.126,0.68592834,1.7122345,11.215759
2018-12-13,04:22:48.146,0.8247985999999999,1.6164703,12.0034485
2018-12-13,04:22:48.168,0.8678894,1.5925293,11.852615
2018-12-13,04:22:48.185,0.9516906999999999,1.7864532,11.402512
2018-12-13,04:22:48.206,1.2150421,2.0474243000000003,11.146332000000001
2018-12-13,04:22:48.225,1.3706665,1.855896,11.086472
2018-12-13,04:22:48.245,1.1815338,1.1639709999999999,11.206177
2018-12-13,04:22:48.266,0.8463440000000001,0.64442444,11.2397
2018-12-13,04:22:48.284,0.7745209,0.7545624,11.014648
2018-12-13,04:22:48.303,0.7984619000000001,1.029892,10.064148
2018-12-13,04:22:48.324,0.78648376,1.2717133,9.262085
2018-12-13,04:22:48.343,0.85113525,1.3746643,8.98436
2018-12-13,04:22:48.367,0.96125793,1.326767,8.582138
2018-12-13,04:22:48.384,0.88464355,1.2166443,8.469604499999999
2018-12-13,04:22:48.402,0.5853729,1.0466461,8.685089
2018-12-13,04:22:48.422,0.3651123,1.0346832000000001,8.795227
2018-12-13,04:22:48.442,0.32440186,1.1663666000000001,8.754517
2018-12-13,04:22:48.462,0.31961059999999997,1.3124083999999998,8.512711
2018-12-13,04:22:48.483,0.27891540000000004,1.4273223999999998,8.249344
2018-12-13,04:22:48.501,0.27651978,1.6356201000000001,8.045836999999999
2018-12-13,04:22:48.520,0.26933290000000004,1.9205322,8.005127
2018-12-13,04:22:48.540,0.23582458,2.0043335,8.282867
2018-12-13,04:22:48.560,0.1304779,1.8726501,8.792831
2018-12-13,04:22:48.580,0.065826416,1.8295593,9.278853999999999
2018-12-13,04:22:48.599,0.027526855,1.9612427,9.501511
2018-12-13,04:22:48.619,-0.017959595,1.9708099,9.786423
2018-12-13,04:22:48.640,-0.11613464,1.7960358,10.480742999999999
2018-12-13,04:22:48.659,-0.1831665,1.5446472,11.459961
2018-12-13,04:22:48.679,-0.08979797,1.4201508,12.159073
2018-12-13,04:22:48.699,-0.053878784000000006,1.5542296999999998,12.015427
2018-12-13,04:22:48.718,-0.044296265,2.1312256,11.299561
2018-12-13,04:22:48.737,0.111312866,2.3323364,10.533417
2018-12-13,04:22:48.757,0.037094116,1.7433624,10.521438999999999
2018-12-13,04:22:48.777,-0.36273193,0.88145447,10.904510499999999
2018-12-13,04:22:48.797,-0.623703,0.7282257,10.550171
2018-12-13,04:22:48.816,-0.6165161,0.94369507,9.841492
2018-12-13,04:22:48.836,-0.57821655,0.9963684000000002,9.494324
2018-12-13,04:22:48.856,-0.46568298,0.9197540000000001,9.013092
2018-12-13,04:22:48.875,-0.20710754,0.8263855,8.685089
2018-12-13,04:22:48.895,-0.11613464,0.69470215,8.797607000000001
2018-12-13,04:22:48.916,-0.041915894,0.5127411000000001,8.953232
2018-12-13,04:22:48.935,0.094558716,0.47204589999999996,8.934082
2018-12-13,04:22:48.954,0.18792725,0.66596985,8.912537
2018-12-13,04:22:48.974,0.32919312,0.9317322,8.677902
2018-12-13,04:22:48.994,0.45848083,1.3076172,8.050628999999999
2018-12-13,04:22:49.015,0.48002625,1.6595612000000002,7.701065
2018-12-13,04:22:49.034,0.5135498,1.8127898999999998,7.691497999999999
2018-12-13,04:22:49.053,0.6021271,1.7864532,8.141602
2018-12-13,04:22:49.073,0.7409973000000001,1.7457580000000001,8.783249
2018-12-13,04:22:49.093,0.77212524,1.7194214,9.345886
2018-12-13,04:22:49.112,0.7984619000000001,1.6140747,10.016266
2018-12-13,04:22:49.132,0.7409973000000001,1.4201508,10.880569
2018-12-13,04:22:49.155,0.68592834,1.2764893,11.754456
2018-12-13,04:22:49.171,0.6907196,1.2573395,12.367371
2018-12-13,04:22:49.190,0.70747375,1.3076172,11.9483795
2018-12-13,04:22:49.210,0.68592834,1.4201508,11.519821
2018-12-13,04:22:49.230,0.69311523,1.6787261999999998,11.529404
2018-12-13,04:22:49.249,0.9085846,1.7026671999999998,11.170273
2018-12-13,04:22:49.269,1.0019684000000002,1.3148041000000001,11.000275
2018-12-13,04:22:49.289,0.84394836,0.6899109,11.0385895
2018-12-13,04:22:49.309,0.6979065,0.46725464,10.806351
2018-12-13,04:22:49.329,0.7050781,0.55822754,10.337082
2018-12-13,04:22:49.349,0.7601471,0.5773925999999999,9.800781
2018-12-13,04:22:49.368,0.9181671,0.5031738,9.235748
2018-12-13,04:22:49.388,0.9397125,0.50556946,9.029846000000001
2018-12-13,04:22:49.408,0.79367065,0.5366820999999999,9.015488000000001
2018-12-13,04:22:49.428,0.54467773,0.54626465,8.823944000000001
2018-12-13,04:22:49.448,0.33158875,0.62527466,8.72818
2018-12-13,04:22:49.472,0.28131104,0.8455353000000001,8.543823
2018-12-13,04:22:49.486,0.31004333,1.0873566000000001,8.299622
2018-12-13,04:22:49.507,0.32440186,1.2884673999999998,8.045836999999999
2018-12-13,04:22:49.526,0.31961059999999997,1.3986053,7.578964
2018-12-13,04:22:49.548,0.33638,1.5518341,7.696289
2018-12-13,04:22:49.565,0.2861023,1.5973206,8.225403
2018-12-13,04:22:49.585,0.1304779,1.5614013999999998,8.943665
2018-12-13,04:22:49.604,0.039489746,1.5542296999999998,9.434479
2018-12-13,04:22:49.626,0.037094116,1.5566101,9.654739
2018-12-13,04:22:49.644,0.068222046,1.4799957000000001,10.435242
2018-12-13,04:22:49.666,-0.008392334,1.2956543,11.606017999999999
2018-12-13,04:22:49.683,-0.14724731,1.1400298999999998,12.175827
2018-12-13,04:22:49.703,-0.18077087,0.9628601000000001,12.034576
2018-12-13,04:22:49.723,-0.28851318,1.1256561,11.749664
2018-12-13,04:22:49.743,-0.27653503,1.7146301,11.2397
2018-12-13,04:22:49.763,-0.015579224,2.0426330000000004,10.557358
2018-12-13,04:22:49.782,-0.07781982400000001,1.4943695,10.521438999999999
2018-12-13,04:22:49.802,-0.43455505,0.56781006,10.885361
2018-12-13,04:22:49.822,-0.67637634,0.3236084,10.894928
2018-12-13,04:22:49.841,-0.5877838000000001,0.6348419,10.207794
2018-12-13,04:22:49.862,-0.51116943,0.9460907,9.230972
2018-12-13,04:22:49.881,-0.6045531999999999,0.90060425,8.694672
2018-12-13,04:22:49.901,-0.5255432,0.70188904,8.639603
2018-12-13,04:22:49.920,-0.23583984,0.5510559,8.788039999999999
2018-12-13,04:22:49.940,-0.12809753,0.464859,8.855072
2018-12-13,04:22:49.959,-0.101760864,0.46246338,8.72818
2018-12-13,04:22:49.980,0.020339966,0.60372925,8.3858185
2018-12-13,04:22:49.999,0.1592102,0.8982085999999999,7.993164
2018-12-13,04:22:50.019,0.41777040000000004,1.1400298999999998,7.655578599999999
2018-12-13,04:22:50.040,0.5063629,1.3171997,7.878235000000001
2018-12-13,04:22:50.060,0.58776855,1.4129638999999998,7.8064117
2018-12-13,04:22:50.079,0.6595916999999999,1.3554993,7.902176
2018-12-13,04:22:50.098,0.7338104,1.1759338,8.804794000000001
2018-12-13,04:22:50.119,0.80085754,1.0969238000000001,9.709808
2018-12-13,04:22:50.138,0.71466064,1.1065063,10.990707
2018-12-13,04:22:50.158,0.74339294,1.1280518,11.785583500000001
2018-12-13,04:22:50.178,0.75535583,0.97003174,12.180617999999999
2018-12-13,04:22:50.198,0.74339294,0.90779114,12.633133
2018-12-13,04:22:50.217,0.85591125,1.029892,12.080063
2018-12-13,04:22:50.236,0.9085846,1.3387451000000001,11.117599499999999
2018-12-13,04:22:50.256,0.8535155999999999,1.666748,10.830292
2018-12-13,04:22:50.275,1.1001282,1.666748,10.758469
2018-12-13,04:22:50.296,1.1408234,1.0562286,11.01944
2018-12-13,04:22:50.315,0.6907196,0.29966736,11.380951
2018-12-13,04:22:50.335,0.44410706,0.10812378,11.35701
2018-12-13,04:22:50.354,0.54945374,0.37149048,10.827896
2018-12-13,04:22:50.374,0.72901917,0.5486603,9.77684
2018-12-13,04:22:50.395,0.73620605,0.56781006,9.125625999999999
2018-12-13,04:22:50.415,0.6212920999999999,0.52711487,8.596497
2018-12-13,04:22:50.434,0.42016602,0.5151367,8.201462
2018-12-13,04:22:50.454,0.19990539999999998,0.59654236,8.098511
2018-12-13,04:22:50.474,0.051467896,0.73779297,8.009917999999999
2018-12-13,04:22:50.494,0.041885376,0.86468506,7.6196747
2018-12-13,04:22:50.515,0.025131226,1.0394745,7.5765686
2018-12-13,04:22:50.534,-0.015579224,1.2717133,7.6867065000000006
2018-12-13,04:22:50.553,0.029922485,1.4728241000000002,7.6340330000000005
2018-12-13,04:22:50.572,0.06103515599999999,1.5829468,7.7297974
2018-12-13,04:22:50.592,0.051467896,1.5207062,8.402573
2018-12-13,04:22:50.613,0.046676635999999994,1.4871826000000001,9.357864
2018-12-13,04:22:50.632,-0.032333374,1.5661926000000002,9.901337
2018-12-13,04:22:50.651,-0.087402344,1.6092833999999998,10.021057
2018-12-13,04:22:50.671,-0.20471191,1.4728241000000002,10.756072999999999
2018-12-13,04:22:50.691,-0.26696777,1.1783295,11.855011
2018-12-13,04:22:50.711,-0.15682983,0.96525574,12.539749
2018-12-13,04:22:50.731,-0.20950317,1.0155334,12.542145
2018-12-13,04:22:50.750,-0.32681274,1.3962097,11.77121
2018-12-13,04:22:50.770,-0.2980957,1.8726501,10.954788
2018-12-13,04:22:50.790,-0.24542236,1.6045074,11.093658
2018-12-13,04:22:50.811,-0.32920837,0.67555237,11.754456
2018-12-13,04:22:50.829,-0.5758209,0.04586792,11.809525
2018-12-13,04:22:50.850,-0.6452484,0.09854126,11.136749
2018-12-13,04:22:50.868,-0.5183563,0.50556946,10.054565
2018-12-13,04:22:50.889,-0.38667297,0.6276703,9.108856
2018-12-13,04:22:50.908,-0.24781799999999998,0.47204589999999996,8.481583
2018-12-13,04:22:50.928,-0.17597961,0.36190796,8.4145355
2018-12-13,04:22:50.951,-0.1831665,0.26374817,8.742554
2018-12-13,04:22:50.969,-0.120910645,0.26374817,8.879013
2018-12-13,04:22:50.987,0.037094116,0.31402588,8.725783999999999
2018-12-13,04:22:51.007,0.18075562,0.56781006,8.481583
2018-12-13,04:22:51.027,0.33158875,1.0011596999999999,8.026688
2018-12-13,04:22:51.046,0.42016602,1.326767,7.617278999999999
2018-12-13,04:22:51.068,0.42974854,1.5877379999999999,7.499954
2018-12-13,04:22:51.086,0.52072144,1.8032226999999998,7.7058563
2018-12-13,04:22:51.106,0.57099915,1.752945,8.206253
2018-12-13,04:22:51.126,0.45368958,1.6356201000000001,9.096893
2018-12-13,04:22:51.145,0.4967804,1.5614013999999998,9.927673
2018-12-13,04:22:51.166,0.6404419,1.3962097,10.971542
2018-12-13,04:22:51.184,0.6260680999999999,1.1424254999999999,11.967545
2018-12-13,04:22:51.204,0.79367065,1.0346832000000001,12.312302
2018-12-13,04:22:51.224,1.0307007,0.9341278000000001,12.2404785
2018-12-13,04:22:51.244,1.1623688,0.94369507,12.216536999999999
2018-12-13,04:22:51.263,1.1839294,1.2166443,12.070496
2018-12-13,04:22:51.284,1.3108215,1.4967651000000002,11.297165
2018-12-13,04:22:51.303,1.3155975,1.2022705,10.990707
2018-12-13,04:22:51.323,1.033081,0.6420288000000001,10.964371
2018-12-13,04:22:51.342,0.8870392,0.50556946,10.5286255
2018-12-13,04:22:51.362,0.9732360999999999,0.7354126,9.93486
2018-12-13,04:22:51.383,1.1240691999999999,0.78089905,9.183075
2018-12-13,04:22:51.402,1.0666046,0.7856903000000001,8.766494999999999
2018-12-13,04:22:51.421,0.8870392,0.7761078,8.582138
2018-12-13,04:22:51.441,0.66677856,0.64682007,8.574950999999999
2018-12-13,04:22:51.461,0.37228394,0.5726013000000001,8.49115
2018-12-13,04:22:51.482,0.22384644,0.7186431999999999,8.302017
2018-12-13,04:22:51.501,0.24060059,1.0155334,7.748947
2018-12-13,04:22:51.520,0.25497437,1.2717133,7.581360000000001
2018-12-13,04:22:51.540,0.16638184,1.4225464,7.313217
2018-12-13,04:22:51.560,0.14723206,1.6332245,7.2916565
2018-12-13,04:22:51.582,0.16638184,1.7266082999999999,7.665161
2018-12-13,04:22:51.600,0.1592102,1.5637969999999999,8.388199
2018-12-13,04:22:51.619,0.041885376,1.4177551000000002,9.606857000000002
2018-12-13,04:22:51.639,-0.06825256,1.3435363999999999,10.437636999999999
2018-12-13,04:22:51.658,-0.008392334,1.3890228,10.791992
2018-12-13,04:22:51.679,0.108932495,1.4225464,11.278015
2018-12-13,04:22:51.697,-0.010787963999999999,1.1807251,12.094437
2018-12-13,04:22:51.717,-0.15203857,1.0131378,12.743256
2018-12-13,04:22:51.737,-0.24781799999999998,1.3124083999999998,12.336243
2018-12-13,04:22:51.757,-0.12809753,1.8104095000000002,11.395325
2018-12-13,04:22:51.776,0.049072265999999996,1.4369048999999998,10.935638
2018-12-13,04:22:51.797,-0.29330444,0.16079712,11.77121
2018-12-13,04:22:51.817,-0.81762695,-0.41142273,12.489471
2018-12-13,04:22:51.836,-0.9421234,-0.21029663,11.689803999999999
2018-12-13,04:22:51.855,-0.8200226,0.1799469,10.542983999999999
2018-12-13,04:22:51.876,-0.702713,0.44810486,9.558975
2018-12-13,04:22:51.895,-0.52075195,0.5941466999999999,8.31398
2018-12-13,04:22:51.916,-0.18795776,0.67315674,7.739380000000001
2018-12-13,04:22:51.935,0.07061767599999999,0.6923064999999999,7.952469000000001
2018-12-13,04:22:51.955,0.16159058,0.7114563,7.8878174
2018-12-13,04:22:51.975,0.23342896,0.7545624,7.72023
2018-12-13,04:22:51.994,0.21905518,0.7880706999999999,7.8327484
2018-12-13,04:22:52.014,0.20230103,0.8742675999999999,8.445663
2018-12-13,04:22:52.034,0.21426392,1.1519928,8.455246
2018-12-13,04:22:52.053,0.3651123,1.4704285,8.108077999999999
2018-12-13,04:22:52.073,0.55903625,1.6284485,8.184692
2018-12-13,04:22:52.092,0.5422821,1.6571808000000001,8.881409
2018-12-13,04:22:52.113,0.50157166,1.6906891,9.420105
2018-12-13,04:22:52.135,0.6021271,1.697876,9.846267999999998
2018-12-13,04:22:52.152,0.70747375,1.6882935000000001,10.478348
2018-12-13,04:22:52.172,0.90618896,1.4369048999999998,11.208572
2018-12-13,04:22:52.191,0.9804076999999999,1.1735381999999999,12.0681
2018-12-13,04:22:52.211,1.0929413000000001,1.0346832000000001,12.183014
2018-12-13,04:22:52.231,1.2006836,1.1591797,11.821487
2018-12-13,04:22:52.250,1.1623688,1.4656372,11.299561
2018-12-13,04:22:52.270,1.3826447,1.7433624,10.574112
2018-12-13,04:22:52.290,1.543045,1.5637969999999999,10.382584
2018-12-13,04:22:52.310,1.2365875,0.94369507,10.691421499999999
2018-12-13,04:22:52.330,0.92774963,0.6396331999999999,10.681854
2018-12-13,04:22:52.349,0.8798523000000001,0.6899109,10.265259
2018-12-13,04:22:52.370,1.0307007,0.7761078,9.642761
2018-12-13,04:22:52.389,1.08815,0.7713165,9.2165985
2018-12-13,04:22:52.409,1.033081,0.7258300999999999,8.74733
2018-12-13,04:22:52.428,0.9373169,0.7138519,8.481583
2018-12-13,04:22:52.450,0.75775146,0.6492157,8.359482
2018-12-13,04:22:52.468,0.47283936,0.622879,8.349899
2018-12-13,04:22:52.487,0.28370667,0.6803435999999999,8.333145
2018-12-13,04:22:52.508,0.20948792,0.8766632,8.431305
2018-12-13,04:22:52.528,0.20469666,1.2405853,8.129639
2018-12-13,04:22:52.549,0.25257874,1.5015564,7.567001299999999
2018-12-13,04:22:52.568,0.24060059,1.6619568,7.581360000000001
2018-12-13,04:22:52.586,0.096954346,1.5997162,8.239761
2018-12-13,04:22:52.606,-0.049087524,1.4967651000000002,9.092102
2018-12-13,04:22:52.626,-0.20710754,1.484787,9.793610000000001
2018-12-13,04:22:52.646,-0.31724548,1.5278931,10.284409
2018-12-13,04:22:52.666,-0.38427734,1.5254974,10.784805
2018-12-13,04:22:52.685,-0.41061400000000003,1.4273223999999998,11.383347
2018-12-13,04:22:52.705,-0.35075378,1.2932587,11.962753
2018-12-13,04:22:52.725,-0.18795776,1.1304473999999998,12.211746
2018-12-13,04:22:52.745,-0.08979797,1.1495971999999999,12.101608
2018-12-13,04:22:52.763,-0.058670044000000005,1.6523895,11.560516
2018-12-13,04:22:52.783,0.027526855,1.9516601999999998,10.636368
2018-12-13,04:22:52.803,0.015548706,1.3124083999999998,10.619598
2018-12-13,04:22:52.823,-0.36991882,0.24459839,11.445602000000001
2018-12-13,04:22:52.843,-0.79608154,-0.16960144,11.711364999999999
2018-12-13,04:22:52.863,-0.7242584,0.04586792,10.712982
2018-12-13,04:22:52.883,-0.49920654,0.26374817,9.930069
2018-12-13,04:22:52.903,-0.44413757,0.27093506,9.427292
2018-12-13,04:22:52.921,-0.27893066,0.2661438,8.989151
2018-12-13,04:22:52.941,-0.106552124,0.21347046,9.417709
2018-12-13,04:22:52.961,0.065826416,0.13446045,8.9987335
2018-12-13,04:22:52.982,0.14723206,0.2948761,8.543823
2018-12-13,04:22:53.001,0.18075562,0.6061249,8.122452000000001
2018-12-13,04:22:53.021,0.31961059999999997,0.9676360999999999,7.4879913
2018-12-13,04:22:53.040,0.40341187,1.2764893,7.270111
2018-12-13,04:22:53.060,0.33398438,1.4273223999999998,7.411377000000001
2018-12-13,04:22:53.080,0.26216125,1.4991608,7.763321
2018-12-13,04:22:53.099,0.31004333,1.4943695,8.273285000000001
2018-12-13,04:22:53.119,0.38426208,1.3986053,9.02507
2018-12-13,04:22:53.140,0.42974854,1.3052216,9.803177
2018-12-13,04:22:53.159,0.53749084,1.326767,10.576508
2018-12-13,04:22:53.179,0.7625427,1.2238159,11.61319
2018-12-13,04:22:53.201,0.8535155999999999,1.0011596999999999,12.568481
2018-12-13,04:22:53.219,0.87028503,0.9604645,12.439194
2018-12-13,04:22:53.237,0.91337585,1.0394745,11.670653999999999
2018-12-13,04:22:53.256,0.87028503,1.2190398999999998,11.060135
2018-12-13,04:22:53.276,0.83436584,1.5470428,10.521438999999999
2018-12-13,04:22:53.296,0.9468994000000001,1.7194214,10.104842999999999
2018-12-13,04:22:53.315,1.0187225,1.350708,10.317932
2018-12-13,04:22:53.335,0.8870392,0.8335724,10.586089999999999
2018-12-13,04:22:53.417,0.7888794,0.5917511,10.416091999999999
2018-12-13,04:22:53.418,0.9445038,0.62527466,10.080902
2018-12-13,04:22:53.419,1.0833588,0.62527466,9.889374
2018-12-13,04:22:53.420,1.1049194,0.63246155,9.724167
2018-12-13,04:22:53.434,1.0666046,0.74497986,9.235748
2018-12-13,04:22:53.454,0.96365356,0.85990906,8.835922
2018-12-13,04:22:53.475,0.73620605,0.90060425,8.694672
2018-12-13,04:22:53.494,0.46566772,0.9460907,8.443268
2018-12-13,04:22:53.514,0.3483429,1.1041107,8.036255
2018-12-13,04:22:53.533,0.38905334,1.3650818,7.9476776
2018-12-13,04:22:53.553,0.37947083,1.5877379999999999,7.5765686
2018-12-13,04:22:53.573,0.3267975,1.7002716,7.193496700000001
2018-12-13,04:22:53.592,0.3483429,1.8032226999999998,7.5095367
2018-12-13,04:22:53.613,0.29806520000000003,1.6643523999999998,8.0937195
2018-12-13,04:22:53.633,0.032318115,1.4704285,8.960419
2018-12-13,04:22:53.652,-0.10894775400000001,1.4440918,9.886978
2018-12-13,04:22:53.672,-0.12330627400000001,1.5901337,10.339478
2018-12-13,04:22:53.691,-0.101760864,1.5949249,10.672272
2018-12-13,04:22:53.712,-0.0036010741999999997,1.401001,11.292374
2018-12-13,04:22:53.734,0.044281006,1.2022705,12.156677
2018-12-13,04:22:53.750,0.14004517,1.1783295,12.522995
2018-12-13,04:22:53.770,0.13287354,1.5231018,12.137527
2018-12-13,04:22:53.790,0.23342896,2.0019379,11.170273
2018-12-13,04:22:53.810,0.27172852,1.6739349,10.744095
2018-12-13,04:22:53.830,-0.111343384,0.62527466,11.668258999999999
2018-12-13,04:22:53.849,-0.5063782,0.03630066,12.144714
2018-12-13,04:22:53.869,-0.61891174,0.2589569,11.172668
2018-12-13,04:22:53.889,-0.5255432,0.7401886,10.088089
2018-12-13,04:22:53.908,-0.4800415,0.8000488,9.463196
2018-12-13,04:22:53.929,-0.32203674,0.6970978,8.943665
2018-12-13,04:22:53.949,-0.14964294,0.6204834,9.08252
2018-12-13,04:22:53.968,-0.07781982400000001,0.48640442,9.168716
2018-12-13,04:22:53.988,0.106536865,0.3451538,8.661147999999999
2018-12-13,04:22:54.008,0.27651978,0.37866209999999995,8.553405999999999
2018-12-13,04:22:54.028,0.21665955,0.6396331999999999,8.70903
2018-12-13,04:22:54.050,0.18315125,0.9676360999999999,8.342711999999999
2018-12-13,04:22:54.066,0.30046082,1.3315582000000001,7.5310820000000005
2018-12-13,04:22:54.086,0.46327209999999996,1.6715393,6.9349213
2018-12-13,04:22:54.106,0.6260680999999999,1.8487091,6.9875945999999995
2018-12-13,04:22:54.126,0.60931396,1.8846283,7.7369843
2018-12-13,04:22:54.146,0.5135498,1.7481537,8.70903
2018-12-13,04:22:54.166,0.5566406,1.7122345,9.20224
2018-12-13,04:22:54.185,0.7194519,1.800827,9.740936
2018-12-13,04:22:54.205,0.8080291999999999,1.5470428,10.777617999999999
2018-12-13,04:22:54.225,0.78648376,1.1807251,12.288361
2018-12-13,04:22:54.245,0.9468994000000001,1.2094573999999998,12.40329
2018-12-13,04:22:54.266,1.0905457,1.3890228,11.792755
2018-12-13,04:22:54.286,1.1216736,1.6739349,11.426453
2018-12-13,04:22:54.303,1.2964478000000002,1.4919738999999999,11.25885
2018-12-13,04:22:54.324,1.2581482,0.6923064999999999,11.886139
2018-12-13,04:22:54.343,0.90618896,-0.03312683,12.420044
2018-12-13,04:22:54.363,0.6763458000000001,-0.04750061,11.900497
2018-12-13,04:22:54.383,0.80563354,0.40739440000000005,10.710587
2018-12-13,04:22:54.402,1.0163269,0.8694763000000001,9.28363
2018-12-13,04:22:54.421,1.2605438,1.2022705,8.436096000000001
2018-12-13,04:22:54.442,1.3922119,1.2932587,7.823181
2018-12-13,04:22:54.461,1.3203888000000001,1.1543883999999998,7.605301
2018-12-13,04:22:54.481,1.0259094000000002,0.974823,7.739380000000001
2018-12-13,04:22:54.501,0.7625427,0.86468506,8.132019
2018-12-13,04:22:54.520,0.59495544,0.8479309000000002,8.445663
2018-12-13,04:22:54.540,0.44410706,0.85990906,8.680297999999999
2018-12-13,04:22:54.562,0.341156,0.9556732,8.773666
2018-12-13,04:22:54.578,0.32440186,1.1974791999999999,8.467209
2018-12-13,04:22:54.598,0.36032104,1.4680328,8.175125
2018-12-13,04:22:54.618,0.22145079999999998,1.5470428,8.285263
2018-12-13,04:22:54.639,0.037094116,1.5614013999999998,8.790436
2018-12-13,04:22:54.657,-0.11373901,1.5637969999999999,9.257309
2018-12-13,04:22:54.677,-0.28851318,1.6212616000000002,9.5877075
2018-12-13,04:22:54.697,-0.34837340000000006,1.6212616000000002,9.891769
2018-12-13,04:22:54.719,-0.36273193,1.6787261999999998,10.461578
2018-12-13,04:22:54.737,-0.44174194,1.6906891,11.055344
2018-12-13,04:22:54.758,-0.48962402,1.5973206,11.565308
2018-12-13,04:22:54.778,-0.5351104999999999,1.3986053,12.053726
2018-12-13,04:22:54.800,-0.6045531999999999,1.5614013999999998,12.123154
2018-12-13,04:22:54.816,-0.40821838,1.9899596999999998,11.230118
2018-12-13,04:22:54.836,-0.11853027,1.8702545,10.799164
2018-12-13,04:22:54.856,-0.21669006,0.95806885,11.292374
2018-12-13,04:22:54.876,-0.52075195,0.26374817,11.945984
2018-12-13,04:22:54.896,-0.47047424,0.3283844,11.352234
2018-12-13,04:22:54.916,-0.21669006,0.63246155,10.243713
2018-12-13,04:22:54.936,-0.120910645,0.6276703,9.530242999999999
2018-12-13,04:22:54.954,-0.16641235,0.3451538,9.2956085
2018-12-13,04:22:54.974,-0.111343384,0.10812378,9.400955
2018-12-13,04:22:54.995,-0.073028564,0.05784607,9.345886
2018-12-13,04:22:55.018,-0.044296265,0.16558838,9.010696000000001
2018-12-13,04:22:55.033,0.041885376,0.48640442,8.337921000000001
2018-12-13,04:22:55.053,0.1592102,0.895813,7.478409
2018-12-13,04:22:55.073,0.23820496,1.2477722,6.9181669999999995
2018-12-13,04:22:55.093,0.2861023,1.4728241000000002,6.9468994
2018-12-13,04:22:55.113,0.27651978,1.6068878,7.399399000000001
2018-12-13,04:22:55.134,0.32440186,1.666748,7.751342999999999
2018-12-13,04:22:55.153,0.39144897,1.6763306,8.321166999999999
2018-12-13,04:22:55.171,0.44410706,1.5614013999999998,9.20224
2018-12-13,04:22:55.191,0.47763062,1.4105682,10.313141
2018-12-13,04:22:55.212,0.55903625,1.3195953,11.426453
2018-12-13,04:22:55.233,0.7242279,1.3674773999999998,12.072875999999999
2018-12-13,04:22:55.250,0.9253540000000001,1.3962097,12.1064
2018-12-13,04:22:55.270,1.040268,1.3004303,11.529404
2018-12-13,04:22:55.290,0.90141296,0.9844055,11.546158
2018-12-13,04:22:55.310,0.79367065,0.76412964,11.73291
2018-12-13,04:22:55.330,0.90141296,0.97003174,11.481522
2018-12-13,04:22:55.350,1.1575928,0.94369507,11.127167
2018-12-13,04:22:55.371,1.1384277,0.5007782000000001,10.947600999999999
2018-12-13,04:22:55.389,0.9373169,0.23741149999999997,10.672272
2018-12-13,04:22:55.408,0.97084045,0.32121277,10.107239
2018-12-13,04:22:55.428,1.0833588,0.47683716,9.16153
2018-12-13,04:22:55.450,1.1049194,0.63723755,8.764099
2018-12-13,04:22:55.468,1.004364,0.8000488,8.376236
2018-12-13,04:22:55.487,0.9229584000000001,0.77371216,7.9979553
2018-12-13,04:22:55.507,0.70747375,0.6707611,8.366653
2018-12-13,04:22:55.527,0.30046082,0.57499695,9.041824
2018-12-13,04:22:55.547,0.068222046,0.6851349,9.218994
2018-12-13,04:22:55.565,0.106536865,0.9484863000000001,8.737762
2018-12-13,04:22:55.585,0.24060059,1.2094573999999998,8.263702
2018-12-13,04:22:55.605,0.341156,1.4129638999999998,8.076965
2018-12-13,04:22:55.626,0.52311707,1.6475983,7.8447266
2018-12-13,04:22:55.645,0.5853729,1.6380157,7.8734589999999995
2018-12-13,04:22:55.666,0.45368958,1.4201508,8.388199
2018-12-13,04:22:55.684,0.35792542,1.2740936,9.400955
2018-12-13,04:22:55.704,0.30046082,1.345932,10.0186615
2018-12-13,04:22:55.724,0.41777040000000004,1.3291626,10.253296
2018-12-13,04:22:55.744,0.43214417,1.053833,11.165482
2018-12-13,04:22:55.766,0.2908783,0.70428467,12.405669999999999
2018-12-13,04:22:55.783,0.09934997599999999,0.60850525,13.116760000000001
2018-12-13,04:22:55.802,-0.020355225,0.83117676,12.362579
2018-12-13,04:22:55.824,-0.06346130000000001,1.6045074,11.175064
2018-12-13,04:22:55.843,0.053863525,2.0689697,10.104842999999999
2018-12-13,04:22:55.863,0.020339966,1.5877379999999999,10.17189
2018-12-13,04:22:55.884,-0.48483276,0.7785034000000001,10.856628
2018-12-13,04:22:55.902,-0.78411865,0.5079498,10.734528
2018-12-13,04:22:55.922,-0.8008728,0.52471924,10.049789
2018-12-13,04:22:55.942,-0.78889465,0.51753235,9.405746
2018-12-13,04:22:55.961,-0.72665405,0.34036255,9.034637
2018-12-13,04:22:55.981,-0.59017944,0.2661438,8.98436
2018-12-13,04:22:56.000,-0.34597778,0.26374817,9.163925
2018-12-13,04:22:56.021,-0.16641235,0.23980713,8.72818
2018-12-13,04:22:56.041,0.020339966,0.23022461,8.244553
2018-12-13,04:22:56.060,0.08497619999999999,0.28529358,8.297226
2018-12-13,04:22:56.080,0.058654785,0.65400696,8.677902
2018-12-13,04:22:56.099,0.19750977,1.0705871999999999,8.421722
2018-12-13,04:22:56.119,0.26216125,1.3746643,7.909363000000001
2018-12-13,04:22:56.139,0.40101624,1.5709839,7.8064117
2018-12-13,04:22:56.159,0.50157166,1.5781708,8.299622
2018-12-13,04:22:56.179,0.44889832,1.4728241000000002,9.269272
2018-12-13,04:22:56.199,0.4058075,1.5015564,9.977951
2018-12-13,04:22:56.218,0.48242188,1.5207062,10.502289
2018-12-13,04:22:56.237,0.5350951999999999,1.3171997,11.431244
2018-12-13,04:22:56.257,0.47283936,1.0634155,12.590027000000001
2018-12-13,04:22:56.277,0.5135498,1.0011596999999999,12.783966
2018-12-13,04:22:56.297,0.7170563,1.0921478,12.008239999999999
2018-12-13,04:22:56.316,0.80563354,1.345932,11.447998
2018-12-13,04:22:56.336,1.0139313,1.6523895,10.739319
2018-12-13,04:22:56.356,1.1288605,1.6116791000000001,10.293991
2018-12-13,04:22:56.376,0.9468994000000001,1.0897522,10.322723
2018-12-13,04:22:56.396,0.6763458000000001,0.6635741999999999,10.478348
2018-12-13,04:22:56.417,0.51594543,0.6923064999999999,10.11203
2018-12-13,04:22:56.435,0.5853729,0.8191986,9.341095
2018-12-13,04:22:56.455,0.6141052,0.76652527,9.384201
2018-12-13,04:22:56.473,0.7026825,0.73779297,9.343491
2018-12-13,04:22:56.493,0.74339294,0.7497710999999999,8.768889999999999
2018-12-13,04:22:56.513,0.6308594,0.7545624,8.457642
2018-12-13,04:22:56.533,0.5255126999999999,0.75216675,8.443268
2018-12-13,04:22:56.553,0.42256165,0.75935364,8.254135
2018-12-13,04:22:56.573,0.28131104,0.88145447,8.184692
2018-12-13,04:22:56.593,0.14962769,1.1376343,8.340317
2018-12-13,04:22:56.612,0.14483643,1.4416962,8.151183999999999
2018-12-13,04:22:56.633,0.1927185,1.6858978,7.677124000000001
2018-12-13,04:22:56.652,0.17356873,1.7840729,7.693893400000001
2018-12-13,04:22:56.672,0.108932495,1.7649078,8.412155
2018-12-13,04:22:56.691,-0.1328888,1.6140747,9.623611
2018-12-13,04:22:56.711,-0.331604,1.5661926000000002,10.495102000000001
2018-12-13,04:22:56.734,-0.3387909,1.6356201000000001,10.772827000000001
2018-12-13,04:22:56.751,-0.3531494,1.5925293,10.995499
2018-12-13,04:22:56.770,-0.43455505,1.4177551000000002,11.723328
2018-12-13,04:22:56.790,-0.4178009,1.321991,12.235686999999999
2018-12-13,04:22:56.810,-0.30766296,1.369873,12.159073
2018-12-13,04:22:56.830,-0.1831665,1.8367310000000001,11.414474499999999
2018-12-13,04:22:56.850,0.080200195,1.9301147,10.686645500000001
2018-12-13,04:22:56.872,0.022735596,0.97242737,11.175064
2018-12-13,04:22:56.889,-0.49441528,-0.05229187,12.379333500000001
2018-12-13,04:22:56.909,-0.7936859,-0.1456604,12.104004
2018-12-13,04:22:56.930,-0.6213074000000001,0.3571167,10.720153999999999
2018-12-13,04:22:56.950,-0.47047424,0.79525757,9.494324
2018-12-13,04:22:56.968,-0.30766296,0.9939728000000001,8.443268
2018-12-13,04:22:56.987,-0.21669006,0.9532776,7.7585297
2018-12-13,04:22:57.008,-0.16641235,0.835968,8.160751
2018-12-13,04:22:57.028,-0.08979797,0.6707611,8.371445
2018-12-13,04:22:57.050,-0.06585693,0.5486603,8.251739500000001
2018-12-13,04:22:57.068,0.07061767599999999,0.6348419,8.053024
2018-12-13,04:22:57.087,0.17596436,0.8000488,7.978790299999999
2018-12-13,04:22:57.107,0.24539185,1.0753784,8.031464
2018-12-13,04:22:57.126,0.32919312,1.3794403,7.813598599999999
2018-12-13,04:22:57.146,0.3986206,1.5470428,7.780075
2018-12-13,04:22:57.166,0.45368958,1.5542296999999998,8.244553
2018-12-13,04:22:57.185,0.51594543,1.5278931,8.90535
2018-12-13,04:22:57.204,0.5614319000000001,1.5326691000000001,9.549392999999998
2018-12-13,04:22:57.224,0.60931396,1.5494385,10.126403999999999
2018-12-13,04:22:57.244,0.7457885999999999,1.4919738999999999,10.648330999999999
2018-12-13,04:22:57.264,0.8894348,1.3914185,11.414474499999999
2018-12-13,04:22:57.283,0.99957275,1.3052216,11.799942
2018-12-13,04:22:57.303,1.2150421,1.1927032,11.606017999999999
2018-12-13,04:22:57.323,1.2988434,1.2693176000000002,11.488693
2018-12-13,04:22:57.343,1.4065857,1.5446472,11.380951
2018-12-13,04:22:57.363,1.6627655,1.6164703,11.036194
2018-12-13,04:22:57.383,1.6795197,1.2645263999999998,11.007462
2018-12-13,04:22:57.402,1.3993988000000002,0.94129944,11.203781
2018-12-13,04:22:57.422,1.2078705,0.895813,10.76326
2018-12-13,04:22:57.442,1.1743469,0.9676360999999999,10.016266
2018-12-13,04:22:57.462,1.1887054,0.9532776,9.614044
2018-12-13,04:22:57.483,1.1551971,0.78089905,9.171111999999999
2018-12-13,04:22:57.500,1.0115356,0.7138519,8.898178
2018-12-13,04:22:57.520,0.73620605,0.6851349,8.768889999999999
2018-12-13,04:22:57.541,0.45608519999999997,0.6061249,8.670715
2018-12-13,04:22:57.560,0.26216125,0.622879,8.594101
2018-12-13,04:22:57.579,0.13287354,0.88864136,8.297226
2018-12-13,04:22:57.599,0.15681458,1.1903076000000001,7.8854218
2018-12-13,04:22:57.619,0.15681458,1.3626862,7.655578599999999
2018-12-13,04:22:57.639,0.056259155,1.4273223999999998,7.5765686
2018-12-13,04:22:57.659,0.041885376,1.5302733999999998,7.777679400000001
2018-12-13,04:22:57.678,-0.005996704,1.453659,8.189484
2018-12-13,04:22:57.698,-0.2190857,1.3554993,9.130402
2018-12-13,04:22:57.718,-0.37709045,1.3626862,9.681076
2018-12-13,04:22:57.737,-0.35794067,1.3842316000000001,10.030624000000001
2018-12-13,04:22:57.757,-0.27175903,1.2908629999999999,10.753677
2018-12-13,04:22:57.777,-0.28851318,1.0801697000000001,11.73291
2018-12-13,04:22:57.797,-0.28372192,1.029892,12.230896000000001
2018-12-13,04:22:57.819,-0.20710754,1.1280518,12.024994
2018-12-13,04:22:57.836,-0.20471191,1.5518341,11.615585000000001
2018-12-13,04:22:57.856,-0.0036010741999999997,2.0282744999999998,10.866211
2018-12-13,04:22:57.876,0.25257874,1.6906891,10.705795
2018-12-13,04:22:57.896,-0.008392334,0.6635741999999999,11.505463
2018-12-13,04:22:57.916,-0.36512756,0.12727356,11.852615
2018-12-13,04:22:57.934,-0.5183563,0.21586609,11.148727000000001
2018-12-13,04:22:57.955,-0.5566559,0.52711487,10.044998
2018-12-13,04:22:57.974,-0.5638428000000001,0.50556946,9.309967
2018-12-13,04:22:57.994,-0.40104675,0.27572632,8.883804
2018-12-13,04:22:58.014,-0.2621765,0.15361023,8.788039999999999
2018-12-13,04:22:58.034,-0.22386170000000002,0.03630066,8.953232
2018-12-13,04:22:58.053,-0.15682983,-0.06425476,8.792831
2018-12-13,04:22:58.073,0.041885376,-0.03552246,8.440872
2018-12-13,04:22:58.092,0.013153076000000001,0.19432068,8.318771
2018-12-13,04:22:58.113,0.027526855,0.5342865,8.105698
2018-12-13,04:22:58.133,0.23103333,0.92214966,7.442489599999999
2018-12-13,04:22:58.152,0.45848083,1.2286072000000001,7.095337
2018-12-13,04:22:58.171,0.53749084,1.3626862,7.6148834
2018-12-13,04:22:58.191,0.55903625,1.2310028,8.510315
2018-12-13,04:22:58.212,0.59495544,1.1184844999999999,9.116043
2018-12-13,04:22:58.234,0.6619873000000001,1.1591797,9.863037
2018-12-13,04:22:58.251,0.71466064,1.1280518,10.741699
2018-12-13,04:22:58.271,0.7409973000000001,0.9772185999999999,11.591644
2018-12-13,04:22:58.291,0.7697295999999999,0.8766632,12.178223
2018-12-13,04:22:58.311,0.8247985999999999,1.0610198999999998,11.986694
2018-12-13,04:22:58.330,0.9157715,1.3531036,11.407288000000001
2018-12-13,04:22:58.350,0.9397125,1.6523895,11.055344
2018-12-13,04:22:58.368,1.1360321000000002,1.7050629000000002,11.01944
2018-12-13,04:22:58.389,1.3227844,1.242981,11.292374
2018-12-13,04:22:58.409,1.3539124,0.58935547,11.804733
2018-12-13,04:22:58.428,1.198288,0.22065735,11.75206
2018-12-13,04:22:58.449,1.1456146,0.12727356,11.151108
2018-12-13,04:22:58.468,1.2437744,0.27333070000000004,10.533417
2018-12-13,04:22:58.488,1.2868805,0.39064026,9.798386
2018-12-13,04:22:58.508,1.0977325,0.3164215,9.353073
2018-12-13,04:22:58.528,0.8247985999999999,0.27572632,9.286026
2018-12-13,04:22:58.549,0.57818604,0.28529358,8.754517
2018-12-13,04:22:58.566,0.3698883,0.36669922,8.223007
2018-12-13,04:22:58.586,0.12568665,0.43133545,7.883025999999999
2018-12-13,04:22:58.607,0.058654785,0.64682007,7.610092
2018-12-13,04:22:58.626,0.15681458,0.92214966,7.270111
2018-12-13,04:22:58.645,0.16638184,1.1807251,7.1049194
2018-12-13,04:22:58.666,0.116104126,1.3315582000000001,7.001968400000001
2018-12-13,04:22:58.685,0.080200195,1.1687622,7.50235
2018-12-13,04:22:58.705,-0.022750853999999997,1.0274963,8.701842999999998
2018-12-13,04:22:58.725,-0.13768005,0.9628601000000001,9.716994999999999
2018-12-13,04:22:58.744,-0.27893066,0.93891907,9.946838
2018-12-13,04:22:58.765,-0.22625732,1.0969238000000001,10.119216999999999
2018-12-13,04:22:58.784,-0.10894775400000001,1.1998749,10.4735565
2018-12-13,04:22:58.803,-0.13049316,1.0969238000000001,11.287582
2018-12-13,04:22:58.823,-0.1328888,1.0155334,11.871765
2018-12-13,04:22:58.842,-0.30047607,1.0610198999999998,12.247665
2018-12-13,04:22:58.863,-0.53271484,1.369873,12.168655000000001
2018-12-13,04:22:58.883,-0.35075378,1.7457580000000001,11.419266
2018-12-13,04:22:58.902,-0.15203857,1.6092833999999998,10.971542
2018-12-13,04:22:58.922,-0.3962555,0.92214966,11.110413000000001
2018-12-13,04:22:58.942,-0.6811676,0.40261840000000004,11.301956
2018-12-13,04:22:58.961,-0.7434082,0.31402588,10.949997
2018-12-13,04:22:58.983,-0.64764404,0.4505005,9.853455
2018-12-13,04:22:59.000,-0.6500397,0.46006775,9.163925
2018-12-13,04:22:59.020,-0.6213074000000001,0.3164215,9.034637
2018-12-13,04:22:59.040,-0.25498962,0.21586609,8.792831
2018-12-13,04:22:59.060,0.022735596,0.21107483,8.833527
2018-12-13,04:22:59.080,0.089767456,0.10093689,8.98436
2018-12-13,04:22:59.099,0.07061767599999999,0.08418274,8.996338
2018-12-13,04:22:59.118,0.010757446,0.23980713,8.910141000000001
2018-12-13,04:22:59.139,0.14962769,0.47204589999999996,8.890991
2018-12-13,04:22:59.158,0.39144897,0.7785034000000001,8.68988
2018-12-13,04:22:59.179,0.5063629,1.1280518,8.333145
2018-12-13,04:22:59.199,0.57818604,1.4464874,7.909363000000001
2018-12-13,04:22:59.217,0.77212524,1.5590057,7.878235000000001
2018-12-13,04:22:59.237,0.85113525,1.5015564,8.601288
2018-12-13,04:22:59.257,0.81282043,1.4369048999999998,9.661926
2018-12-13,04:22:59.277,0.9660492,1.3674773999999998,10.260468
2018-12-13,04:22:59.296,1.1001282,1.3291626,10.30835
2018-12-13,04:22:59.316,1.2701111,1.1831207000000001,10.583694
2018-12-13,04:22:59.336,1.4640503,1.1424254999999999,11.040985000000001
2018-12-13,04:22:59.356,1.6388245,1.3315582000000001,10.978729
2018-12-13,04:22:59.376,1.7681122,1.5997162,10.533417
2018-12-13,04:22:59.395,2.0578003000000002,1.484787,10.30835
2018-12-13,04:22:59.416,2.017105,0.7880706999999999,11.201400999999999
2018-12-13,04:22:59.436,1.5167236000000002,0.017150878999999997,12.434402
2018-12-13,04:22:59.454,1.08815,-0.30368042,12.549332000000001
2018-12-13,04:22:59.474,0.9732360999999999,-0.12651062,11.75206
2018-12-13,04:22:59.494,1.0809784,0.22065735,10.586089999999999
2018-12-13,04:22:59.515,1.2389832,0.49838257,9.580521000000001
2018-12-13,04:22:59.533,1.3419341999999999,0.6300659000000001,8.608475
2018-12-13,04:22:59.553,1.3060303,0.7114563,8.325958
2018-12-13,04:22:59.573,1.0522461,0.6420288000000001,8.39299
2018-12-13,04:22:59.592,0.73620605,0.45767212,8.574950999999999
2018-12-13,04:22:59.612,0.41777040000000004,0.31402588,8.606079
2018-12-13,04:22:59.635,0.30046082,0.36909485,8.3858185
2018-12-13,04:22:59.651,0.29806520000000003,0.5917511,8.031464
2018-12-13,04:22:59.671,0.19032288,0.8263855,7.617278999999999
2018-12-13,04:22:59.691,0.025131226,1.0490416999999999,7.289261
2018-12-13,04:22:59.711,-0.06825256,1.2070618,7.4832
2018-12-13,04:22:59.730,-0.094573975,1.2453766000000002,8.213425
2018-12-13,04:22:59.750,-0.16880798,1.3531036,9.183075
2018-12-13,04:22:59.771,-0.32920837,1.4608459999999999,9.8845825
2018-12-13,04:22:59.790,-0.41300964,1.6068878,10.119216999999999
2018-12-13,04:22:59.810,-0.40104675,1.5901337,10.662704
2018-12-13,04:22:59.831,-0.4800415,1.4416962,11.934021000000001
2018-12-13,04:22:59.850,-0.5805969,1.4225464,12.805511
2018-12-13,04:22:59.868,-0.61172485,1.4512787,12.266815
2018-12-13,04:22:59.889,-0.6021576,1.7673035,11.467148
2018-12-13,04:22:59.908,-0.44174194,2.2940369,10.777617999999999
2018-12-13,04:22:59.929,-0.19514465,2.2772675,10.5286255
2018-12-13,04:22:59.950,-0.3387909,1.369873,10.916489
2018-12-13,04:22:59.968,-0.9086151,0.37866209999999995,11.711364999999999
2018-12-13,04:22:59.988,-1.2581635,0.17515564,11.670653999999999
2018-12-13,04:23:00.007,-1.2198639,0.36909485,10.650725999999999
2018-12-13,04:23:00.026,-1.0187378,0.31402588,9.616425
2018-12-13,04:23:00.048,-0.91578674,0.07220459,9.245331
2018-12-13,04:23:00.065,-0.7434082,-0.06425476,8.914932
2018-12-13,04:23:00.085,-0.40104675,-0.0594635,8.773666
2018-12-13,04:23:00.105,-0.1328888,-0.2318573,8.381027
2018-12-13,04:23:00.124,-0.032333374,-0.19114685,8.347503999999999
2018-12-13,04:23:00.144,0.1304779,-0.04031372,8.098511
2018-12-13,04:23:00.164,0.38905334,0.12966919,7.5717773
2018-12-13,04:23:00.184,0.47763062,0.46246338,7.8878174
2018-12-13,04:23:00.205,0.5614319000000001,0.7425841999999999,7.808807400000001
2018-12-13,04:23:00.225,0.7601471,0.9915924,7.3275757
2018-12-13,04:23:00.244,1.1096953999999999,1.1424254999999999,7.3371580000000005
2018-12-13,04:23:00.264,1.1240691999999999,1.1232605,8.158356
2018-12-13,04:23:00.283,1.0905457,1.1591797,9.175903
2018-12-13,04:23:00.303,1.2892609,1.326767,9.661926
2018-12-13,04:23:00.323,1.4137726000000002,1.5231018,10.205399
2018-12-13,04:23:00.342,1.4424896,1.4345093,11.060135
2018-12-13,04:23:00.362,1.4664306999999999,1.2549438,12.168655000000001
2018-12-13,04:23:00.383,1.4520721,1.4584503,12.896484
2018-12-13,04:23:00.402,1.4305267,1.7074585,12.522995
2018-12-13,04:23:00.421,1.4999542,2.0522156000000003,11.922042999999999
2018-12-13,04:23:00.441,1.7968445,2.2317810000000002,11.811919999999999
2018-12-13,04:23:00.461,1.9835814999999999,1.7792816000000002,12.348221
2018-12-13,04:23:00.480,1.7729034,0.92933655,13.145493
2018-12-13,04:23:00.500,1.3706665,0.35472107,13.37294
2018-12-13,04:23:00.520,1.1647644,0.28050232,12.360184
2018-12-13,04:23:00.540,1.2006836,0.42895508,10.389755000000001
2018-12-13,04:23:00.560,1.1360321000000002,0.41697693,9.372223
2018-12-13,04:23:00.579,0.9851989999999999,0.19432068,9.02507
2018-12-13,04:23:00.599,0.9109802,-0.08340454,8.464813000000001
2018-12-13,04:23:00.619,0.7960663,-0.13130188,7.8950043
2018-12-13,04:23:00.638,0.633255,-0.013977051,7.796844500000001
2018-12-13,04:23:00.658,0.5255126999999999,0.03390503,7.480804400000001
2018-12-13,04:23:00.678,0.46327209999999996,0.10093689,7.0618134
2018-12-13,04:23:00.699,0.26933290000000004,0.34994507,6.834366
2018-12-13,04:23:00.719,0.13764954,0.6899109,6.408203
2018-12-13,04:23:00.737,-0.039520264,0.8479309000000002,5.9389343
2018-12-13,04:23:00.757,-0.19992065,1.2166443,6.523117
2018-12-13,04:23:00.777,-0.40582275,1.5757751,7.6867065000000006
2018-12-13,04:23:00.797,-0.50398254,0.9628601000000001,8.158356
2018-12-13,04:23:00.818,-0.6715850999999999,1.3339538999999998,9.254913
2018-12-13,04:23:00.837,-0.9133911,1.4608459999999999,10.05217
2018-12-13,04:23:00.856,-0.9133911,1.3986053,10.411301
2018-12-13,04:23:00.876,-0.7314453000000001,1.3986053,10.985916
2018-12-13,04:23:00.895,-0.6715850999999999,1.3124083999999998,12.070496
2018-12-13,04:23:00.916,-0.5853881999999999,1.2764893,12.743256
2018-12-13,04:23:00.936,-0.5734253,1.4560547,12.676224000000001
2018-12-13,04:23:00.955,-0.5518799,1.9373016,12.350616
2018-12-13,04:23:00.974,-0.27175903,2.0474243000000003,11.811919999999999
2018-12-13,04:23:00.994,-0.20231628,1.3914185,11.977112
2018-12-13,04:23:01.014,-0.5566559,0.57499695,12.350616
2018-12-13,04:23:01.033,-0.8511504999999999,0.306839,11.900497
2018-12-13,04:23:01.052,-0.80566406,0.36190796,10.971542
2018-12-13,04:23:01.073,-0.72665405,0.36669922,10.17189
2018-12-13,04:23:01.092,-0.45132446,0.22543335,9.228577
2018-12-13,04:23:01.113,-0.17597961,0.17755127,8.711426
2018-12-13,04:23:01.133,-0.039520264,0.07939148,8.771286
2018-12-13,04:23:01.153,0.17356873,-0.08102417,8.694672
2018-12-13,04:23:01.171,0.36749268,-0.0881958,8.527069000000001
2018-12-13,04:23:01.192,0.5111542,0.12727356,8.045836999999999
2018-12-13,04:23:01.211,0.63565063,0.5031738,7.466446
2018-12-13,04:23:01.231,0.6907196,0.88145447,7.4975586
2018-12-13,04:23:01.251,0.8463440000000001,1.2022705,7.258147999999999
2018-12-13,04:23:01.269,1.1073151,1.424942,7.188705400000001
2018-12-13,04:23:01.290,1.2365875,1.4799957000000001,7.794449
2018-12-13,04:23:01.310,1.2126465,1.3770447000000001,8.692276
2018-12-13,04:23:01.329,1.2030792,1.4464874,9.475174
2018-12-13,04:23:01.349,1.332367,1.5231018,9.965988000000001
2018-12-13,04:23:01.369,1.2557526,1.4321136,10.621994
2018-12-13,04:23:01.389,1.2078705,1.2740936,11.35701
2018-12-13,04:23:01.408,1.3898163000000001,1.2549438,11.637131
2018-12-13,04:23:01.428,1.4496765,1.3339538999999998,11.663467
2018-12-13,04:23:01.451,1.4879913,1.5685883,11.754456
2018-12-13,04:23:01.468,1.6938933999999997,1.642807,11.711364999999999
2018-12-13,04:23:01.487,1.7226105,1.3243866000000002,12.075272
2018-12-13,04:23:01.507,1.5885468,0.73301697,12.50145
2018-12-13,04:23:01.527,1.356308,0.34036255,12.396103
2018-12-13,04:23:01.547,1.1504059,0.34036255,11.61319
2018-12-13,04:23:01.566,1.1408234,0.6396331999999999,10.286804
2018-12-13,04:23:01.586,1.2342072,0.85032654,9.020278999999999
2018-12-13,04:23:01.606,1.2653198,0.75935364,8.0937195
2018-12-13,04:23:01.626,1.1504059,0.5654144,7.818389999999999
2018-12-13,04:23:01.645,1.0187225,0.3523407,7.863876299999999
2018-12-13,04:23:01.665,0.791275,0.12966919,8.072174
2018-12-13,04:23:01.684,0.37467957,-0.07623291,8.426514
2018-12-13,04:23:01.705,0.16877747,-0.0594635,8.656357
2018-12-13,04:23:01.724,0.106536865,0.13446045,8.754517
2018-12-13,04:23:01.744,0.053863525,0.48880005,8.263702
2018-12-13,04:23:01.763,-0.049087524,0.85032654,7.665161
2018-12-13,04:23:01.783,-0.14007568,1.1304473999999998,7.356308
2018-12-13,04:23:01.804,-0.31724548,1.2788848999999998,7.842331
2018-12-13,04:23:01.823,-0.3962555,1.3124083999999998,8.653961
2018-12-13,04:23:01.843,-0.49441528,1.4081726,9.1375885
2018-12-13,04:23:01.863,-0.6141205,1.5374603,9.594878999999999
2018-12-13,04:23:01.883,-0.5662384,1.4225464,10.138367
2018-12-13,04:23:01.901,-0.49201965,1.2357941000000001,11.179839999999999
2018-12-13,04:23:01.922,-0.6093291999999999,1.0873566000000001,12.321883999999999
2018-12-13,04:23:01.942,-0.7434082,1.0490416999999999,12.774384
2018-12-13,04:23:01.961,-0.8918457000000001,1.1687622,12.58046
2018-12-13,04:23:01.980,-0.89424133,1.7625122,11.826279
2018-12-13,04:23:02.002,-0.47286987,2.025879,10.710587
2018-12-13,04:23:02.021,-0.40821838,1.4081726,10.885361
2018-12-13,04:23:02.040,-0.8846741,0.47923279999999996,11.6922
2018-12-13,04:23:02.060,-1.0426788,0.22065735,11.606017999999999
2018-12-13,04:23:02.079,-0.7218628,0.45527650000000003,10.614807
2018-12-13,04:23:02.099,-0.35554504,0.60850525,9.5877075
2018-12-13,04:23:02.119,-0.19992065,0.40979004,8.931686000000001
2018-12-13,04:23:02.139,-0.013183594,0.20388794,9.149567
2018-12-13,04:23:02.158,0.14723206,0.1512146,9.355469
2018-12-13,04:23:02.178,0.2286377,0.10572815,8.752121
2018-12-13,04:23:02.216,0.40341187,0.13446045,8.302017
2018-12-13,04:23:02.218,0.5063629,0.28768920000000003,8.172729499999999
2018-12-13,04:23:02.237,0.5398864999999999,0.60372925,8.371445
2018-12-13,04:23:02.257,0.6045227,0.9628601000000001,8.251739500000001
2018-12-13,04:23:02.277,0.80085754,1.2764893,7.471222
2018-12-13,04:23:02.297,1.0570221000000002,1.4799957000000001,7.107315
2018-12-13,04:23:02.317,1.3108215,1.5207062,7.5454407
2018-12-13,04:23:02.336,1.3275757,1.5685883,8.436096000000001
2018-12-13,04:23:02.355,1.2844848999999998,1.6116791000000001,9.230972
2018-12-13,04:23:02.375,1.3179931999999999,1.6380157,9.585312
2018-12-13,04:23:02.395,1.4305267,1.5877379999999999,10.059357
2018-12-13,04:23:02.416,1.4017944,1.4273223999999998,10.957184
2018-12-13,04:23:02.436,1.2389832,1.1424254999999999,11.962753
2018-12-13,04:23:02.453,1.16716,1.0059509,12.247665
2018-12-13,04:23:02.473,1.2509613000000002,1.156784,12.048935
2018-12-13,04:23:02.493,1.3993988000000002,1.508728,11.852615
2018-12-13,04:23:02.513,1.622055,1.4464874,11.577286
2018-12-13,04:23:02.533,1.6699523999999997,0.9173584000000001,11.799942
2018-12-13,04:23:02.553,1.5286865,0.31881714,11.895706
2018-12-13,04:23:02.572,1.3515167,0.14404297,11.447998
2018-12-13,04:23:02.592,1.3299713,0.2589569,10.612427
2018-12-13,04:23:02.612,1.3970032,0.5079498,9.8845825
2018-12-13,04:23:02.633,1.3610992,0.6061249,9.108856
2018-12-13,04:23:02.652,1.2892609,0.49119568,8.431305
2018-12-13,04:23:02.671,1.0905457,0.39543152,8.407364
2018-12-13,04:23:02.691,0.6979065,0.27572632,8.548614500000001
2018-12-13,04:23:02.711,0.28849792,0.21586609,8.474396
2018-12-13,04:23:02.730,0.075408936,0.35951233,8.223007
2018-12-13,04:23:02.750,0.08497619999999999,0.6132965,7.7681119999999995
2018-12-13,04:23:02.770,0.111312866,0.7713165,7.452072
2018-12-13,04:23:02.789,0.034698486,0.98680115,7.4065857
2018-12-13,04:23:02.810,0.022735596,1.2549438,7.665161
2018-12-13,04:23:02.829,-0.056274414,1.2980499,8.194275
2018-12-13,04:23:02.849,-0.22386170000000002,1.1711578,8.685089
2018-12-13,04:23:02.870,-0.3603363,1.1807251,9.372223
2018-12-13,04:23:02.889,-0.45370483,1.3291626,9.99472
2018-12-13,04:23:02.908,-0.56144714,1.326767,10.408905
2018-12-13,04:23:02.928,-0.64764404,1.2573395,11.024216000000001
2018-12-13,04:23:02.949,-0.5949707,1.2286072000000001,11.440811
2018-12-13,04:23:02.967,-0.59017944,1.1472015,11.730514999999999
2018-12-13,04:23:02.987,-0.7290496999999999,1.3004303,11.857407
2018-12-13,04:23:03.007,-0.37231445,1.5614013999999998,11.148727000000001
2018-12-13,04:23:03.027,0.053863525,1.1280518,10.784805
2018-12-13,04:23:03.047,-0.35554504,0.19432068,11.802338
2018-12-13,04:23:03.066,-0.8200226,-0.30847168,12.226105
2018-12-13,04:23:03.086,-0.69792175,-0.04750061,10.966766
2018-12-13,04:23:03.106,-0.5231475999999999,0.44570923,9.743332
2018-12-13,04:23:03.126,-0.57102966,0.5342865,9.233353
2018-12-13,04:23:03.145,-0.5734253,0.19671631,9.307587
2018-12-13,04:23:03.166,-0.32443237,0.11291504,9.75769
2018-12-13,04:23:03.185,-0.0036010741999999997,-0.02355957,9.570938
2018-12-13,04:23:03.205,0.18075562,-0.14805603,9.269272
2018-12-13,04:23:03.224,0.16877747,-0.05706787,9.001128999999999
2018-12-13,04:23:03.244,0.20230103,0.2589569,8.4097595
2018-12-13,04:23:03.265,0.38186646,0.63723755,7.756133999999999
2018-12-13,04:23:03.283,0.4848175,0.90779114,7.334762599999999
2018-12-13,04:23:03.302,0.66677856,1.1448212,7.018722500000001
2018-12-13,04:23:03.322,0.8367614999999999,1.2932587,7.176742599999999
2018-12-13,04:23:03.342,0.83436584,1.242981,8.002747
2018-12-13,04:23:03.362,0.8104248000000001,1.0610198999999998,8.752121
2018-12-13,04:23:03.384,0.87268066,1.0634155,9.329132000000001
2018-12-13,04:23:03.401,0.94210815,1.2860718,9.803177
2018-12-13,04:23:03.421,1.1336365,1.5326691000000001,9.894165
2018-12-13,04:23:03.441,1.2725066999999999,1.618866,10.1766815
2018-12-13,04:23:03.460,1.2820892,1.4225464,11.096053999999999
2018-12-13,04:23:03.481,1.3227844,1.1927032,11.843033
2018-12-13,04:23:03.499,1.4568633999999998,1.0083466,12.321883999999999
2018-12-13,04:23:03.519,1.5957184,1.0394745,12.455948
2018-12-13,04:23:03.538,1.8423308999999997,1.1184844999999999,12.329056
2018-12-13,04:23:03.559,2.0506287,0.9628601000000001,12.465530000000001
2018-12-13,04:23:03.578,1.9859772,0.5917511,12.654678
2018-12-13,04:23:03.598,1.7250061,0.21347046,12.542145
2018-12-13,04:23:03.685,1.4472809,0.1799469,11.936417
2018-12-13,04:23:03.686,1.4520721,0.43852234,10.729736
2018-12-13,04:23:03.687,1.5358733999999998,0.58695984,9.748108
2018-12-13,04:23:03.688,1.3970032,0.43133545,9.166321
2018-12-13,04:23:03.698,1.1480103000000002,0.15600586,8.567764
2018-12-13,04:23:03.717,0.7194519,-0.05706787,8.230194000000001
2018-12-13,04:23:03.736,0.25257874,-0.11213684,8.124847
2018-12-13,04:23:03.757,-0.049087524,-0.11932373,7.8758545
2018-12-13,04:23:03.776,-0.252594,-0.07383728,7.763321
2018-12-13,04:23:03.796,-0.24063110000000001,0.22305298,7.6867065000000006
2018-12-13,04:23:03.815,-0.13528442,0.6635741999999999,7.2246246
2018-12-13,04:23:03.835,0.013153076000000001,1.1424254999999999,6.609314
2018-12-13,04:23:03.856,0.12808228,1.424942,6.470443700000001
2018-12-13,04:23:03.876,0.087371826,1.424942,7.684311
2018-12-13,04:23:03.895,-0.101760864,1.3052216,9.139984
2018-12-13,04:23:03.916,-0.31245422,1.2836761,9.865433
2018-12-13,04:23:03.934,-0.4178009,1.429718,10.109634
2018-12-13,04:23:03.954,-0.34597778,1.6499939,10.267653999999999
2018-12-13,04:23:03.974,-0.34118652,1.7146301,10.66748
2018-12-13,04:23:03.994,-0.6069336,1.4632416000000001,11.6539
2018-12-13,04:23:04.014,-0.5853881999999999,1.1855163999999998,12.561295
2018-12-13,04:23:04.033,-0.45610046,1.0705871999999999,12.745650999999999
2018-12-13,04:23:04.052,-0.59017944,1.4584503,12.429611
2018-12-13,04:23:04.072,-0.57821655,1.9588470000000002,11.400116
2018-12-13,04:23:04.093,-0.22865295,1.6547851999999998,11.000275
2018-12-13,04:23:04.112,-0.37709045,0.5295105,11.838257
2018-12-13,04:23:04.135,-0.78411865,-0.20552063,12.096832000000001
2018-12-13,04:23:04.153,-0.762558,-0.17918396,11.457564999999999
2018-12-13,04:23:04.171,-0.47526549999999995,0.14164734,10.1024475
2018-12-13,04:23:04.191,-0.20710754,0.20149231,8.811981
2018-12-13,04:23:04.210,-0.101760864,0.18473816,8.369049
2018-12-13,04:23:04.231,0.0011901855,0.11770630000000001,8.268494
2018-12-13,04:23:04.250,0.111312866,0.07220459,8.244553
2018-12-13,04:23:04.270,0.21905518,0.02911377,8.122452000000001
2018-12-13,04:23:04.291,0.29327393,0.012359618999999999,8.053024
2018-12-13,04:23:04.311,0.24778748,0.12727356,8.148788
2018-12-13,04:23:04.333,0.31243896,0.46725464,8.297226
2018-12-13,04:23:04.349,0.5039673,0.9604645,8.029083
2018-12-13,04:23:04.370,0.8535155999999999,1.2932587,7.3275757
2018-12-13,04:23:04.389,1.0929413000000001,1.5757751,7.6148834
2018-12-13,04:23:04.408,1.1240691999999999,1.6858978,9.063369999999999
2018-12-13,04:23:04.428,1.1264648000000002,1.6930846999999998,9.716994999999999
2018-12-13,04:23:04.450,1.4017944,1.6858978,9.786423
2018-12-13,04:23:04.468,1.5765686,1.7433624,10.404129
2018-12-13,04:23:04.488,1.5885468,1.6858978,11.230118
2018-12-13,04:23:04.511,1.6867064999999999,1.5063323999999998,11.799942
2018-12-13,04:23:04.526,1.8159942999999998,1.3531036,12.173447
2018-12-13,04:23:04.546,1.8638762999999998,1.5446472,12.317093
2018-12-13,04:23:04.565,1.9859772,1.7577362,11.823883
2018-12-13,04:23:04.585,2.1799164,1.4345093,11.289978
2018-12-13,04:23:04.604,2.048233,0.7713165,11.73291
2018-12-13,04:23:04.626,1.7010651,0.34994507,11.835861
2018-12-13,04:23:04.645,1.4879913,0.26853943,10.961975
2018-12-13,04:23:04.669,1.4568633999999998,0.45527650000000003,10.095276
2018-12-13,04:23:04.684,1.3491211,0.62527466,9.195053
2018-12-13,04:23:04.705,1.1120911,0.6348419,8.134414999999999
2018-12-13,04:23:04.724,0.7792969,0.48880005,7.8614807
2018-12-13,04:23:04.744,0.5279083000000001,0.34994507,8.132019
2018-12-13,04:23:04.767,0.29566956,0.25177002,8.297226
2018-12-13,04:23:04.785,0.118499756,0.30444336,8.196671
2018-12-13,04:23:04.803,0.120895386,0.5845642,7.8974
2018-12-13,04:23:04.823,0.120895386,0.812027,7.746567
2018-12-13,04:23:04.843,0.015548706,1.0131378,7.940490700000001
2018-12-13,04:23:04.862,-0.11853027,1.1663666000000001,8.045836999999999
2018-12-13,04:23:04.884,-0.19514465,1.2717133,8.148788
2018-12-13,04:23:04.901,-0.22148132,1.448883,8.45285
2018-12-13,04:23:04.921,-0.106552124,1.5949249,8.658752
2018-12-13,04:23:04.942,0.077804565,1.7122345,8.950836
2018-12-13,04:23:04.962,-0.008392334,1.7050629000000002,9.597275
2018-12-13,04:23:04.982,-0.082611084,1.4799957000000001,10.277237
2018-12-13,04:23:05.001,-0.24302673,1.0921478,11.287582
2018-12-13,04:23:05.020,-0.64045715,0.6970978,12.487076
2018-12-13,04:23:05.040,-1.1049347,0.73062134,12.795929
2018-12-13,04:23:05.060,-1.4425201,1.3052216,12.345825
2018-12-13,04:23:05.084,-1.3946381,1.7266082999999999,11.412078999999999
2018-12-13,04:23:05.100,-1.2821045,1.3866272,11.268433
2018-12-13,04:23:05.118,-1.5502625,0.45527650000000003,12.26442
2018-12-13,04:23:05.139,-1.643631,-0.07623291,12.084854
2018-12-13,04:23:05.159,-1.3683014,-0.06665039,11.289978
2018-12-13,04:23:05.179,-1.0594482,0.09376526,10.317932
2018-12-13,04:23:05.200,-0.58299255,0.21347046,9.309967
2018-12-13,04:23:05.220,0.008361816,0.25656128,8.469604499999999
2018-12-13,04:23:05.238,0.25257874,0.22782898,8.462433
2018-12-13,04:23:05.257,0.26933290000000004,0.22065735,8.498337
2018-12-13,04:23:05.277,0.32200623,0.34275818,8.304413
2018-12-13,04:23:05.298,0.5470581,0.5486603,7.9716187000000005
2018-12-13,04:23:05.318,0.8367614999999999,0.7186431999999999,7.260544
2018-12-13,04:23:05.336,0.78648376,1.0011596999999999,7.5646057
2018-12-13,04:23:05.356,0.67874146,1.1687622,7.8614807
2018-12-13,04:23:05.376,0.7050781,1.350708,7.871063
2018-12-13,04:23:05.395,0.9181671,1.4728241000000002,8.088928
2018-12-13,04:23:05.416,1.033081,1.5446472,8.510315
2018-12-13,04:23:05.436,0.9947815000000001,1.5973206,9.139984
2018-12-13,04:23:05.454,1.0546417,1.7194214,9.853455
2018-12-13,04:23:05.474,1.3706665,1.7050629000000002,10.025833
2018-12-13,04:23:05.494,1.538269,1.4943695,10.586089999999999
2018-12-13,04:23:05.517,1.4664306999999999,1.1352386,11.826279
2018-12-13,04:23:05.536,1.4616547,0.7713165,12.846207000000001
2018-12-13,04:23:05.552,1.4832001,0.82398987,13.083236999999999
2018-12-13,04:23:05.572,1.7154387999999998,1.1376343,12.300339
2018-12-13,04:23:05.592,2.079361,1.1304473999999998,11.627563
2018-12-13,04:23:05.612,2.108078,0.67315674,11.847824000000001
2018-12-13,04:23:05.633,1.8686676,0.32121277,11.991486
2018-12-13,04:23:05.652,1.787262,0.22543335,11.395325
2018-12-13,04:23:05.671,1.7369843,0.22782898,10.696213
2018-12-13,04:23:05.691,1.8135986000000002,0.22065735,9.898941
2018-12-13,04:23:05.711,1.7752838,0.2589569,9.005905
2018-12-13,04:23:05.733,1.5095367,0.32600403,8.256530999999999
2018-12-13,04:23:05.751,1.1312561,0.3164215,7.962036
2018-12-13,04:23:05.770,0.80563354,0.3283844,7.859085
2018-12-13,04:23:05.790,0.54467773,0.37149048,7.684311
2018-12-13,04:23:05.810,0.31721497,0.47923279999999996,7.5717773
2018-12-13,04:23:05.829,0.23582458,0.71624756,7.605301
2018-12-13,04:23:05.849,0.20709229,0.9844055,7.353912400000001
2018-12-13,04:23:05.869,0.063430786,1.2405853,7.2916565
2018-12-13,04:23:05.889,-0.041915894,1.484787,7.713042999999999
2018-12-13,04:23:05.908,-0.120910645,1.642807,8.438492
2018-12-13,04:23:05.928,-0.24302673,1.7313995,9.084914999999999
2018-12-13,04:23:05.950,-0.34118652,1.8894043000000003,9.276459
2018-12-13,04:23:05.967,-0.27893066,2.0785522000000003,9.290817
2018-12-13,04:23:05.987,-0.31724548,2.0809479,9.91571
2018-12-13,04:23:06.007,-0.5805969,1.8175811999999998,10.985916
2018-12-13,04:23:06.027,-0.70510864,1.5111237,11.991486
2018-12-13,04:23:06.046,-0.6021576,1.326767,12.489471
2018-12-13,04:23:06.066,-0.5375061,1.5135193,12.238083
2018-12-13,04:23:06.087,-0.31724548,1.8127898999999998,11.297165
2018-12-13,04:23:06.106,-0.101760864,1.5877379999999999,11.057739
2018-12-13,04:23:06.126,-0.22386170000000002,0.61569214,12.051331
2018-12-13,04:23:06.145,-0.43695068,-0.18635559,12.432007
2018-12-13,04:23:06.167,-0.1616211,-0.18635559,11.304337
2018-12-13,04:23:06.184,0.21665955,0.1464386,9.920502
2018-12-13,04:23:06.204,0.30046082,0.3164215,9.28363
2018-12-13,04:23:06.224,0.3770752,0.26853943,9.259689
2018-12-13,04:23:06.243,0.48960876,0.19911194,9.185471000000001
2018-12-13,04:23:06.264,0.43933105,0.20628357,8.931686000000001
2018-12-13,04:23:06.283,0.45368958,0.32600403,8.641998
2018-12-13,04:23:06.302,0.48960876,0.5342865,8.0937195
2018-12-13,04:23:06.323,0.33877563,0.94129944,7.5047455
2018-12-13,04:23:06.342,0.25257874,1.2453766000000002,7.1647644
2018-12-13,04:23:06.363,0.3770752,1.3315582000000001,7.159973
2018-12-13,04:23:06.382,0.57099915,1.429718,7.5646057
2018-12-13,04:23:06.401,0.7098694000000001,1.5637969999999999,8.519882
2018-12-13,04:23:06.421,0.79367065,1.5350647,9.31955
2018-12-13,04:23:06.442,0.8367614999999999,1.453659,10.03302
2018-12-13,04:23:06.461,1.0594177,1.5111237,10.610031
2018-12-13,04:23:06.484,1.3203888000000001,1.6882935000000001,10.595657000000001
2018-12-13,04:23:06.500,1.5167236000000002,1.7840729,10.478348
2018-12-13,04:23:06.519,1.6364288,1.697876,10.780014
2018-12-13,04:23:06.540,1.6795197,1.3483276000000002,11.510239
2018-12-13,04:23:06.560,1.5143280000000001,1.1783295,12.477509
2018-12-13,04:23:06.579,1.3946075,1.424942,12.424835
2018-12-13,04:23:06.599,1.6436157,1.5685883,11.445602000000001
2018-12-13,04:23:06.618,1.8135986000000002,1.0969238000000001,11.462357
2018-12-13,04:23:06.638,1.6555786,0.37628174,12.118378
2018-12-13,04:23:06.658,1.416153,0.07460022,12.127945
2018-12-13,04:23:06.679,1.3898163000000001,0.1799469,11.256454
2018-12-13,04:23:06.698,1.4927673000000001,0.43133545,9.9396515
2018-12-13,04:23:06.717,1.574173,0.70428467,8.795227
2018-12-13,04:23:06.737,1.4616547,0.87187195,7.677124000000001
2018-12-13,04:23:06.757,1.1073151,0.812027,7.358703599999999
2018-12-13,04:23:06.777,0.7338104,0.67555237,7.4927673
2018-12-13,04:23:06.796,0.36749268,0.5151367,7.7369843
2018-12-13,04:23:06.815,0.051467896,0.385849,8.124847
2018-12-13,04:23:06.835,-0.12330627400000001,0.43852234,8.266098
2018-12-13,04:23:06.855,-0.06346130000000001,0.6707611,7.921341
2018-12-13,04:23:06.875,-0.022750853999999997,1.0729828000000001,7.6148834
2018-12-13,04:23:06.895,-0.010787963999999999,1.3722687,7.3515167
2018-12-13,04:23:06.915,-0.010787963999999999,1.5494385,7.650787400000001
2018-12-13,04:23:06.935,-0.07781982400000001,1.6452026000000002,8.558197
2018-12-13,04:23:06.954,-0.22625732,1.7433624,8.98436
2018-12-13,04:23:06.974,-0.30766296,1.9444733,9.139984
2018-12-13,04:23:06.993,-0.3531494,2.0402527,9.530242999999999
2018-12-13,04:23:07.013,-0.41300964,1.8295593,10.44722
2018-12-13,04:23:07.033,-0.678772,1.453659,12.001053
2018-12-13,04:23:07.053,-0.6955260999999999,1.211853,12.956344999999999
2018-12-13,04:23:07.072,-0.6069336,1.132843,12.901276
2018-12-13,04:23:07.092,-0.6500397,1.4752197,12.341034
2018-12-13,04:23:07.113,-0.4800415,1.8511046999999998,11.455185
2018-12-13,04:23:07.134,-0.42498779999999997,1.4991608,11.531799000000001
2018-12-13,04:23:07.151,-0.8080596999999999,0.6204834,12.041763000000001
2018-12-13,04:23:07.172,-1.1408539,0.09136963,11.744873
2018-12-13,04:23:07.191,-1.0426788,0.13685608,10.677063
2018-12-13,04:23:07.211,-0.6667938,0.19911194,9.616425
2018-12-13,04:23:07.231,-0.47766113,-0.03791809,9.329132000000001
2018-12-13,04:23:07.250,-0.32203674,-0.03074646,9.453629
2018-12-13,04:23:07.269,-0.046691895,0.16319275,9.104065
2018-12-13,04:23:07.289,0.1927185,0.385849,8.534256
2018-12-13,04:23:07.309,0.6021271,0.6013335999999999,7.643615700000001
2018-12-13,04:23:07.329,0.9085846,0.8910216999999999,7.1192779999999996
2018-12-13,04:23:07.349,0.86309814,1.2070618,7.6603699999999995
2018-12-13,04:23:07.368,0.82240295,1.2932587,7.775284
2018-12-13,04:23:07.388,0.93252563,1.4081726,7.4377135999999995
2018-12-13,04:23:07.408,1.1743469,1.4967651000000002,7.653183
2018-12-13,04:23:07.427,1.2629242,1.4033813,8.424118
2018-12-13,04:23:07.449,1.1240691999999999,1.2357941000000001,9.535034
2018-12-13,04:23:07.467,1.00914,1.0897522,10.188644
2018-12-13,04:23:07.486,1.1096953999999999,1.1998749,10.444824
2018-12-13,04:23:07.507,1.222229,1.5326691000000001,10.768036
2018-12-13,04:23:07.526,1.4017944,1.6811218,10.985916
2018-12-13,04:23:07.546,1.4496765,1.666748,11.440811
2018-12-13,04:23:07.566,1.3347626,1.4464874,11.888535000000001
2018-12-13,04:23:07.589,1.1839294,1.242981,11.991486
2018-12-13,04:23:07.605,1.0833588,1.4728241000000002,11.629959
2018-12-13,04:23:07.626,1.1695556999999999,1.6236572,11.131958000000001
2018-12-13,04:23:07.645,1.1528015,1.1998749,11.187027
2018-12-13,04:23:07.666,0.88464355,0.5223236,11.816696
2018-12-13,04:23:07.686,0.79367065,0.29008484,11.811919999999999
2018-12-13,04:23:07.704,0.97084045,0.39303590000000005,10.961975
2018-12-13,04:23:07.723,1.1144867,0.56062317,10.140761999999999
2018-12-13,04:23:07.744,1.2413788000000001,0.7066803,9.04422
2018-12-13,04:23:07.764,1.2796936,0.8670806999999999,7.9117584
2018-12-13,04:23:07.783,1.1456146,0.96525574,7.262924000000001
2018-12-13,04:23:07.802,0.90141296,0.8670806999999999,7.198288000000001
2018-12-13,04:23:07.822,0.65719604,0.70188904,7.677124000000001
2018-12-13,04:23:07.842,0.37228394,0.60372925,8.3307495
2018-12-13,04:23:07.862,0.23103333,0.66596985,8.395386
2018-12-13,04:23:07.882,0.18554688,0.9149780000000001,8.072174
2018-12-13,04:23:07.902,0.14723206,1.2621307,7.787261999999999
2018-12-13,04:23:07.921,0.24299622,1.5278931,7.574172999999999
2018-12-13,04:23:07.941,0.33638,1.7194214,7.701065
2018-12-13,04:23:07.961,0.24060059,1.8056183000000001,7.9835815000000006
2018-12-13,04:23:07.983,0.111312866,1.8774414000000001,8.282867
2018-12-13,04:23:08.000,0.034698486,1.8104095000000002,8.699448
2018-12-13,04:23:08.019,-0.17597961,1.7577362,9.44165
2018-12-13,04:23:08.040,-0.34118652,1.5590057,10.519043
2018-12-13,04:23:08.060,-0.48243713,1.029892,11.914871
2018-12-13,04:23:08.080,-0.5231475999999999,0.5917511,13.363357999999998
2018-12-13,04:23:08.101,-0.5255432,0.64442444,14.122314000000001
2018-12-13,04:23:08.119,-0.6955260999999999,1.2190398999999998,13.41124
2018-12-13,04:23:08.139,-0.5303191999999999,1.9061737,11.75206
2018-12-13,04:23:08.158,-0.33639526,1.9660186999999998,10.935638
2018-12-13,04:23:08.178,-0.47286987,1.2142487,11.376175
2018-12-13,04:23:08.197,-0.6667938,0.46725464,11.632355
2018-12-13,04:23:08.218,-0.7290496999999999,0.25177002,11.141541
2018-12-13,04:23:08.237,-0.62849426,0.28289795,10.040207
2018-12-13,04:23:08.257,-0.5518799,0.2948761,9.314758
2018-12-13,04:23:08.277,-0.42736816,0.19192505,8.869446
2018-12-13,04:23:08.300,-0.19752502,0.0315094,9.02507
2018-12-13,04:23:08.318,-0.061065674,-0.06665039,9.314758
2018-12-13,04:23:08.336,0.077804565,-0.11932373,9.230972
2018-12-13,04:23:08.355,0.47763062,0.0075683593999999995,8.802399000000001
2018-12-13,04:23:08.375,0.7601471,0.4145813,8.311584
2018-12-13,04:23:08.395,0.85591125,0.8551178,7.756133999999999
2018-12-13,04:23:08.416,0.8774719000000001,1.2525482,7.480804400000001
2018-12-13,04:23:08.434,0.94929504,1.3938141000000002,7.2437744
2018-12-13,04:23:08.454,0.9157715,1.3986053,7.3395386
2018-12-13,04:23:08.474,0.79367065,1.3962097,7.851897999999999
2018-12-13,04:23:08.493,0.78648376,1.5350647,8.246948
2018-12-13,04:23:08.513,0.93492126,1.7912445,8.187088000000001
2018-12-13,04:23:08.533,1.0737915,1.9373016,8.524673
2018-12-13,04:23:08.553,1.3491211,1.7720947,9.427292
2018-12-13,04:23:08.573,1.4736176,1.4464874,11.024216000000001
2018-12-13,04:23:08.592,1.1360321000000002,1.2501526,12.54454
2018-12-13,04:23:08.612,1.1719513000000001,1.1927032,13.102386
2018-12-13,04:23:08.633,1.3922119,1.3483276000000002,12.927612
2018-12-13,04:23:08.651,1.6699523999999997,1.3578948999999998,12.578064
2018-12-13,04:23:08.671,1.4832001,0.8623046999999998,13.152664000000001
2018-12-13,04:23:08.691,1.1073151,0.385849,13.303497
2018-12-13,04:23:08.711,0.9732360999999999,0.519928,12.613968
2018-12-13,04:23:08.730,1.0426636,0.8623046999999998,11.110413000000001
2018-12-13,04:23:08.750,1.1575928,1.1041107,9.695435
2018-12-13,04:23:08.770,1.2126465,1.1280518,8.776062
2018-12-13,04:23:08.790,1.198288,1.0322876,7.945282000000001
2018-12-13,04:23:08.810,1.1480103000000002,0.97242737,7.40419
2018-12-13,04:23:08.829,0.93492126,0.7282257,7.167160000000001
2018-12-13,04:23:08.849,0.65000916,0.37628174,7.294052000000001
2018-12-13,04:23:08.868,0.42735290000000004,0.18473816,7.796844500000001
2018-12-13,04:23:08.889,0.24299622,0.28289795,8.302017
2018-12-13,04:23:08.908,0.17356873,0.6013335999999999,8.064987
2018-12-13,04:23:08.928,0.27651978,1.0562286,7.2677154999999996
2018-12-13,04:23:08.949,0.25497437,1.4201508,7.023514
2018-12-13,04:23:08.967,0.039489746,1.5111237,7.8159943
2018-12-13,04:23:08.987,-0.046691895,1.5829468,8.946060000000001
2018-12-13,04:23:09.007,-0.025146484,1.6811218,9.37941
2018-12-13,04:23:09.027,0.0011901855,1.831955,9.5637665
2018-12-13,04:23:09.047,0.005981445300000001,1.8702545,10.104842999999999
2018-12-13,04:23:09.066,-0.13768005,1.6763306,11.3546295
2018-12-13,04:23:09.086,-0.3890686,1.3004303,12.618758999999999
2018-12-13,04:23:09.106,-0.544693,1.0394745,13.234070000000001
2018-12-13,04:23:09.124,-0.762558,1.2022705,12.841415
2018-12-13,04:23:09.144,-0.98283386,1.5925293,11.708969
2018-12-13,04:23:09.165,-0.9971924000000001,1.4177551000000002,11.127167
2018-12-13,04:23:09.184,-1.3419647,0.36190796,11.67305
2018-12-13,04:23:09.204,-1.9452971999999997,-0.6268921,12.039368
2018-12-13,04:23:09.224,-2.0721893,-0.7777251999999999,11.225342
2018-12-13,04:23:09.244,-1.5598296999999999,-0.3012848,9.985138000000001
2018-12-13,04:23:09.263,-0.9014281999999999,0.18713379,9.060974
2018-12-13,04:23:09.283,-0.27893066,0.60850525,8.266098
2018-12-13,04:23:09.303,0.3698883,0.97242737,7.9596405
2018-12-13,04:23:09.323,0.9181671,1.1448212,7.978790299999999
2018-12-13,04:23:09.342,1.2892609,1.1017151,8.060196000000001
2018-12-13,04:23:09.362,1.3491211,1.0490416999999999,8.656357
2018-12-13,04:23:09.382,1.3227844,1.0155334,9.183075
2018-12-13,04:23:09.401,1.2294159,1.053833,8.902954
2018-12-13,04:23:09.421,1.1911011,1.2860718,8.53186
2018-12-13,04:23:09.441,1.1599731000000002,1.5901337,8.237366
2018-12-13,04:23:09.461,1.0618134,1.7122345,8.041046000000001
2018-12-13,04:23:09.481,1.0594177,1.6595612000000002,8.397781
2018-12-13,04:23:09.503,1.0235138000000001,1.6164703,8.86705
2018-12-13,04:23:09.521,1.1336365,1.697876,8.955627
2018-12-13,04:23:09.540,1.2533569,1.6691436999999998,9.400955
2018-12-13,04:23:09.560,1.2964478000000002,1.4632416000000001,9.975555
2018-12-13,04:23:09.580,1.3227844,1.2956543,10.571716
2018-12-13,04:23:09.599,1.4688263000000001,1.0035553,11.234909
2018-12-13,04:23:09.618,1.4760132,0.7186431999999999,12.194992
2018-12-13,04:23:09.638,1.3922119,0.9125824,12.664246
2018-12-13,04:23:09.658,1.8447266,1.2693176000000002,11.898102
2018-12-13,04:23:09.678,2.4193267999999994,1.0394745,11.294769
2018-12-13,04:23:09.701,2.3714447,0.26135254,11.75206
2018-12-13,04:23:09.718,1.9309081999999997,-0.27255250000000003,12.566086
2018-12-13,04:23:09.737,1.7681122,-0.3156433,11.704178
2018-12-13,04:23:09.757,1.8183898999999997,-0.006790160999999999,10.423278999999999
2018-12-13,04:23:09.776,1.6340332,0.40261840000000004,9.451233
2018-12-13,04:23:09.797,1.3036346,0.5366820999999999,8.3905945
2018-12-13,04:23:09.816,0.9660492,0.5773925999999999,7.813598599999999
2018-12-13,04:23:09.836,0.6428375,0.43133545,8.053024
2018-12-13,04:23:09.856,0.36032104,0.24938965,8.321166999999999
2018-12-13,04:23:09.875,0.23342896,0.088974,8.266098
2018-12-13,04:23:09.895,0.23103333,0.08418274,7.918945299999999
2018-12-13,04:23:09.917,0.2861023,0.25416565,7.6148834
2018-12-13,04:23:09.934,0.20230103,0.39303590000000005,7.669952400000001
2018-12-13,04:23:09.954,0.058654785,0.5079498,7.6747284
2018-12-13,04:23:09.974,-0.0036010741999999997,0.7401886,7.868667599999999
2018-12-13,04:23:09.994,-0.23823547,0.9460907,8.524673
2018-12-13,04:23:10.013,-0.6500397,1.1424254999999999,9.381805
2018-12-13,04:23:10.033,-0.93255615,1.448883,9.800781
2018-12-13,04:23:10.052,-1.0331116,1.8175811999999998,9.594878999999999
2018-12-13,04:23:10.072,-1.0091705,1.9564514,9.59967
2018-12-13,04:23:10.092,-1.0905761999999999,1.8175811999999998,10.332291
2018-12-13,04:23:10.111,-1.1408539,1.5350647,11.591644
2018-12-13,04:23:10.131,-1.0379028000000001,1.2908629999999999,12.659469999999999
2018-12-13,04:23:10.151,-0.78889465,1.0969238000000001,12.618758999999999
2018-12-13,04:23:10.171,-0.5566559,1.0801697000000001,12.056122
2018-12-13,04:23:10.191,-0.25738525,1.2333983999999998,11.622772
2018-12-13,04:23:10.211,0.15681458,1.0801697000000001,11.313919
2018-12-13,04:23:10.232,0.2908783,0.29008484,11.582077
2018-12-13,04:23:10.249,0.015548706,-0.41619873,11.835861
2018-12-13,04:23:10.270,-0.075424194,-0.6939392,11.548553
2018-12-13,04:23:10.290,-0.15922546,-0.6795654000000001,11.160689999999999
2018-12-13,04:23:10.309,-0.27175903,-0.54071045,10.600449000000001
2018-12-13,04:23:10.329,-0.18556213,-0.42338562,9.870224
2018-12-13,04:23:10.349,-0.053878784000000006,-0.2940979,9.293213
2018-12-13,04:23:10.368,-0.06346130000000001,-0.2534027,8.759308
2018-12-13,04:23:10.389,-0.073028564,-0.21748352,8.37384
2018-12-13,04:23:10.408,-0.051483154,0.05305481,8.088928
2018-12-13,04:23:10.428,-0.0036010741999999997,0.40022278,7.6986694
2018-12-13,04:23:10.449,0.080200195,0.77371216,7.3179929999999995
2018-12-13,04:23:10.466,0.25737,1.1208649,6.863098
2018-12-13,04:23:10.486,0.37228394,1.3195953,6.647628999999999
2018-12-13,04:23:10.505,0.31721497,1.4081726,7.0307007
2018-12-13,04:23:10.526,0.3267975,1.4177551000000002,7.7537384000000005
2018-12-13,04:23:10.545,0.4920044,1.2238159,8.404967999999998
2018-12-13,04:23:10.565,0.5398864999999999,0.9820099,9.412918
2018-12-13,04:23:10.671,0.5925598000000001,0.8742675999999999,10.60524
2018-12-13,04:23:10.672,0.791275,0.77371216,11.708969
2018-12-13,04:23:10.672,1.1264648000000002,0.6132965,12.171051
2018-12-13,04:23:10.673,1.2892609,0.5797882,12.166260000000001
2018-12-13,04:23:10.673,1.4209441999999999,0.6851349,12.254837
2018-12-13,04:23:10.683,1.7705078,0.9484863000000001,11.704178
2018-12-13,04:23:10.703,2.194275,1.2549438,11.409683
2018-12-13,04:23:10.724,2.3355408,1.0634155,11.603622
2018-12-13,04:23:10.744,2.024292,0.40261840000000004,12.139923
2018-12-13,04:23:10.764,1.708252,-0.04031372,12.020203
2018-12-13,04:23:10.783,1.5789642,-0.15763855,11.383347
2018-12-13,04:23:10.803,1.6148833999999999,-0.01637268,10.739319
2018-12-13,04:23:10.822,1.7106476000000002,0.20388794,10.159912
2018-12-13,04:23:10.842,1.7705078,0.27333070000000004,9.367432
2018-12-13,04:23:10.862,1.6651611000000002,0.24220276,8.718613000000001
2018-12-13,04:23:10.884,1.356308,0.10812378,8.469604499999999
2018-12-13,04:23:10.903,1.040268,-0.04750061,8.498337
2018-12-13,04:23:10.921,0.7625427,-0.10974121,8.45285
2018-12-13,04:23:10.941,0.53749084,0.05545044,8.179916
2018-12-13,04:23:10.962,0.39382935,0.4145813,7.480804400000001
2018-12-13,04:23:10.981,0.40101624,0.8000488,6.760147
2018-12-13,04:23:11.003,0.39382935,1.1017151,6.353134
2018-12-13,04:23:11.020,0.33398438,1.2597351,6.547058
2018-12-13,04:23:11.040,0.21188354,1.2693176000000002,7.5430603000000005
2018-12-13,04:23:11.060,0.049072265999999996,1.2214355,8.445663
2018-12-13,04:23:11.081,-0.19992065,1.2238159,9.183075
2018-12-13,04:23:11.102,-0.37709045,1.3315582000000001,9.977951
2018-12-13,04:23:11.120,-0.45132446,1.3674773999999998,10.741699
2018-12-13,04:23:11.139,-0.5375061,1.424942,11.452789
2018-12-13,04:23:11.158,-0.65960693,1.4943695,11.953171000000001
2018-12-13,04:23:11.178,-0.74580383,1.5590057,12.317093
2018-12-13,04:23:11.199,-0.81762695,1.8199768,12.336243
2018-12-13,04:23:11.217,-0.78889465,2.334732,11.730514999999999
2018-12-13,04:23:11.237,-0.48243713,2.2605133,11.266036999999999
2018-12-13,04:23:11.257,-0.3818817,1.2908629999999999,12.127945
2018-12-13,04:23:11.277,-0.7003174,0.23501587,12.865356
2018-12-13,04:23:11.296,-0.85354614,-0.009185791,12.2285
2018-12-13,04:23:11.318,-0.62849426,0.21586609,10.796768
2018-12-13,04:23:11.336,-0.33639526,0.36430359999999995,9.484755999999999
2018-12-13,04:23:11.355,-0.25738525,0.3283844,9.45842
2018-12-13,04:23:11.375,-0.073028564,0.26374817,9.549392999999998
2018-12-13,04:23:11.395,0.11370849599999999,0.16319275,9.04422
2018-12-13,04:23:11.416,0.2501831,0.11531067,8.61087
2018-12-13,04:23:11.435,0.47044373,0.13925171,8.445663
2018-12-13,04:23:11.454,0.6141052,0.30444336,8.215819999999999
2018-12-13,04:23:11.474,0.72901917,0.6707611,7.7585297
2018-12-13,04:23:11.494,0.85113525,1.0945281999999998,7.057037400000001
2018-12-13,04:23:11.513,0.98280334,1.3938141000000002,6.367492700000001
2018-12-13,04:23:11.533,1.2294159,1.4799957000000001,6.312439
2018-12-13,04:23:11.552,1.4329223999999998,1.3986053,7.1384277
2018-12-13,04:23:11.572,1.459259,1.2286072000000001,8.608475
2018-12-13,04:23:11.592,1.4329223999999998,0.94369507,9.070557
2018-12-13,04:23:11.612,1.5358733999999998,1.029892,9.408142
2018-12-13,04:23:11.633,1.9764099,1.3243866000000002,10.162308
2018-12-13,04:23:11.651,1.9907683999999997,1.2070618,11.0385895
2018-12-13,04:23:11.671,1.5885468,1.1687622,12.290756
2018-12-13,04:23:11.691,1.4688263000000001,1.3363495,11.823883
2018-12-13,04:23:11.712,1.4879913,1.5494385,10.940430000000001
2018-12-13,04:23:11.734,1.2916565,1.8199768,11.052947999999999
2018-12-13,04:23:11.751,1.2365875,1.9253235,11.103226
2018-12-13,04:23:11.770,1.5358733999999998,1.7649078,10.914093
2018-12-13,04:23:11.790,1.6507874,1.1807251,11.012253
2018-12-13,04:23:11.810,1.4257355,0.6970978,11.467148
2018-12-13,04:23:11.829,1.3539124,0.42895508,11.656296000000001
2018-12-13,04:23:11.849,1.4903870000000001,0.34275818,11.390533
2018-12-13,04:23:11.868,1.5765686,0.306839,10.897324000000001
2018-12-13,04:23:11.888,1.5095367,0.3571167,10.054565
2018-12-13,04:23:11.908,1.4233398000000002,0.41937256,8.996338
2018-12-13,04:23:11.928,1.1528015,0.38345337,8.361877
2018-12-13,04:23:11.950,0.7242279,0.3738861,8.244553
2018-12-13,04:23:11.967,0.3651123,0.5079498,8.0937195
2018-12-13,04:23:11.987,0.27651978,0.7425841999999999,7.8279570000000005
2018-12-13,04:23:12.007,0.43693542,1.0418701,7.681915299999999
2018-12-13,04:23:12.026,0.48721313,1.2357941000000001,7.732193
2018-12-13,04:23:12.047,0.25257874,1.2860718,7.859085
2018-12-13,04:23:12.068,0.18315125,1.4823913999999998,8.088928
2018-12-13,04:23:12.085,0.037094116,1.5949249,8.567764
2018-12-13,04:23:12.106,-0.26457214,1.7601166000000001,9.183075
2018-12-13,04:23:12.125,-0.5805969,1.8822327,9.882187
2018-12-13,04:23:12.149,-0.7242584,1.7696991000000002,10.07373
2018-12-13,04:23:12.166,-0.8583374,1.7146301,10.475952000000001
2018-12-13,04:23:12.184,-0.8080596999999999,1.7194214,10.741699
2018-12-13,04:23:12.204,-0.6141205,1.5637969999999999,10.777617999999999
2018-12-13,04:23:12.224,-0.6356659,1.3531036,11.41687
2018-12-13,04:23:12.244,-0.6955260999999999,1.5254974,11.802338
2018-12-13,04:23:12.264,-0.623703,1.7792816000000002,11.029007
2018-12-13,04:23:12.283,-0.49201965,1.5422516000000002,10.600449000000001
2018-12-13,04:23:12.302,-0.5518799,0.7689209,10.803955
2018-12-13,04:23:12.322,-0.9301605,0.12487793,11.349838
2018-12-13,04:23:12.342,-1.1312714,-0.04989624,11.163086
2018-12-13,04:23:12.362,-0.97325134,0.23980713,10.162308
2018-12-13,04:23:12.382,-0.7146759,0.52711487,9.422500999999999
2018-12-13,04:23:12.401,-0.52793884,0.42895508,8.831131
2018-12-13,04:23:12.421,-0.3962555,0.26135254,8.970001
2018-12-13,04:23:12.441,-0.26696777,0.31163025,9.276459
2018-12-13,04:23:12.460,-0.12809753,0.29248047,9.190261999999999
2018-12-13,04:23:12.481,-0.061065674,0.39782715,9.001128999999999
2018-12-13,04:23:12.500,-0.0012054442999999998,0.61808777,8.670715
2018-12-13,04:23:12.520,0.094558716,0.8742675999999999,8.141602
2018-12-13,04:23:12.539,0.19032288,1.0274963,7.928512599999999
2018-12-13,04:23:12.559,0.3483429,1.1017151,8.309204
2018-12-13,04:23:12.580,0.46087646,1.2310028,8.524673
2018-12-13,04:23:12.600,0.6117096,1.2932587,8.443268
2018-12-13,04:23:12.618,0.72184753,1.4033813,8.668335
2018-12-13,04:23:12.639,0.7170563,1.4871826000000001,9.386581
2018-12-13,04:23:12.658,0.8176116999999999,1.5949249,10.408905
2018-12-13,04:23:12.677,0.9851989999999999,1.7912445,10.978729
2018-12-13,04:23:12.699,1.0187225,1.8439178,11.191818
2018-12-13,04:23:12.718,1.0809784,1.8846283,11.143936
2018-12-13,04:23:12.737,1.2342072,2.0234832999999997,11.297165
2018-12-13,04:23:12.760,1.32518,2.1958618,11.603622
2018-12-13,04:23:12.777,1.4017944,1.7122345,11.953171000000001
2018-12-13,04:23:12.796,1.24617,0.6803435999999999,12.783966
2018-12-13,04:23:12.816,0.8463440000000001,-0.03074646,13.389694
2018-12-13,04:23:12.836,0.63804626,-0.05229187,12.793533
2018-12-13,04:23:12.855,0.8607024999999999,0.49838257,10.973938
2018-12-13,04:23:12.875,1.1528015,1.1112976,9.348282000000001
2018-12-13,04:23:12.895,1.3203888000000001,1.4033813,8.122452000000001
2018-12-13,04:23:12.915,1.3706665,1.4201508,7.3706665
2018-12-13,04:23:12.934,1.1456146,1.2022705,7.420944
2018-12-13,04:23:12.954,0.8200073,0.8287810999999999,7.8806305
2018-12-13,04:23:12.973,0.44172668,0.55584717,8.316376
2018-12-13,04:23:12.993,0.16877747,0.5773925999999999,8.333145
2018-12-13,04:23:13.013,0.14723206,0.7282257,8.091324
2018-12-13,04:23:13.033,0.24060059,0.94369507,7.8926086
2018-12-13,04:23:13.052,0.12808228,1.1807251,7.5095367
2018-12-13,04:23:13.072,0.044281006,1.4943695,7.385040299999999
2018-12-13,04:23:13.091,0.096954346,1.7720947,7.353912400000001
2018-12-13,04:23:13.112,0.19032288,1.8678589,7.550232
2018-12-13,04:23:13.135,0.022735596,1.7912445,8.72818
2018-12-13,04:23:13.151,-0.20950317,1.7266082999999999,9.846267999999998
2018-12-13,04:23:13.172,-0.1257019,1.8702545,10.310744999999999
2018-12-13,04:23:13.191,-0.104156494,2.066574,10.665085000000001
2018-12-13,04:23:13.212,-0.15203857,1.8032226999999998,11.206177
2018-12-13,04:23:13.232,-0.33639526,1.2980499,12.54454
2018-12-13,04:23:13.250,-0.8272094999999999,1.2669219999999999,13.760788
2018-12-13,04:23:13.271,-1.0187378,1.752945,12.810303
2018-12-13,04:23:13.290,-0.678772,1.8295593,11.419266
2018-12-13,04:23:13.310,-0.69073486,1.0179138,11.373778999999999
2018-12-13,04:23:13.332,-1.1767578,0.12966919,12.010635
2018-12-13,04:23:13.350,-1.315628,0.0027770996,11.778397
2018-12-13,04:23:13.368,-1.1049347,0.21586609,10.645935
2018-12-13,04:23:13.389,-0.8224181999999999,0.46725464,9.635589999999999
2018-12-13,04:23:13.408,-0.40342712,0.69470215,8.428908999999999
2018-12-13,04:23:13.428,-0.025146484,0.75935364,7.739380000000001
2018-12-13,04:23:13.451,0.106536865,0.63723755,8.096115
2018-12-13,04:23:13.467,0.073013306,0.35472107,8.7066345
2018-12-13,04:23:13.487,0.108932495,0.24220276,8.8862
2018-12-13,04:23:13.507,0.2286377,0.48640442,8.433701
2018-12-13,04:23:13.527,0.27412415,0.8335724,7.9500732
2018-12-13,04:23:13.546,0.40101624,1.1950988999999999,7.64122
2018-12-13,04:23:13.566,0.73620605,1.5183105,7.3227844
2018-12-13,04:23:13.588,0.85591125,1.5997162,7.5214996
2018-12-13,04:23:13.606,0.7050781,1.4464874,8.658752
2018-12-13,04:23:13.625,0.6979065,1.2693176000000002,9.597275
2018-12-13,04:23:13.644,0.81282043,1.2573395,10.145553999999999
2018-12-13,04:23:13.666,0.9540863000000002,1.3004303,10.696213
2018-12-13,04:23:13.684,1.1647644,1.2812805,11.165482
2018-12-13,04:23:13.705,1.4185486,1.2908629999999999,11.371383999999999
2018-12-13,04:23:13.724,1.5478363000000002,1.3986053,11.287582
2018-12-13,04:23:13.744,1.4688263000000001,1.5039368,11.237305000000001
2018-12-13,04:23:13.765,1.495163,1.5470428,11.278015
2018-12-13,04:23:13.783,1.7968445,1.0825653,11.586853
2018-12-13,04:23:13.802,1.7393798999999999,0.43133545,12.233292
2018-12-13,04:23:13.822,1.3730621,0.18952942,12.202164
2018-12-13,04:23:13.843,1.3275757,0.32121277,11.323502000000001
2018-12-13,04:23:13.863,1.3467255,0.7473755,10.188644
2018-12-13,04:23:13.883,1.2054749,1.132843,9.139984
2018-12-13,04:23:13.901,0.9875946,1.1807251,8.134414999999999
2018-12-13,04:23:13.921,0.65719604,0.94129944,7.672333
2018-12-13,04:23:13.941,0.21905518,0.6707611,7.918945299999999
2018-12-13,04:23:13.961,-0.12330627400000001,0.5630188,8.100906
2018-12-13,04:23:13.980,-0.252594,0.65400696,7.8614807
2018-12-13,04:23:14.000,-0.14486694,0.90779114,7.7345885999999995
2018-12-13,04:23:14.019,-0.14724731,1.1184844999999999,7.4832
2018-12-13,04:23:14.039,-0.21429443,1.2836761,7.4065857
2018-12-13,04:23:14.058,-0.15203857,1.4991608,7.5047455
2018-12-13,04:23:14.078,-0.1831665,1.5446472,7.981186
2018-12-13,04:23:14.098,-0.2693634,1.3531036,8.948456
2018-12-13,04:23:14.117,-0.40342712,1.1663666000000001,10.064148
2018-12-13,04:23:14.138,-0.5853881999999999,1.2525482,10.772827000000001
2018-12-13,04:23:14.158,-0.47766113,1.369873,11.069717
2018-12-13,04:23:14.178,-0.43215942,1.187912,11.744873
2018-12-13,04:23:14.199,-0.5159607,0.85990906,12.9635315
2018-12-13,04:23:14.217,-0.6739807,0.90779114,13.258010999999998
2018-12-13,04:23:14.237,-0.7410126,1.5183105,12.257233
2018-12-13,04:23:14.256,-0.3890686,1.9181366000000002,10.866211
2018-12-13,04:23:14.276,-0.13528442,1.1735381999999999,10.696213
2018-12-13,04:23:14.296,-0.6572113,-0.09059143,12.060913000000001
2018-12-13,04:23:14.317,-1.1480255,-0.41859436,12.314697
2018-12-13,04:23:14.336,-1.0163422,-0.10496521,11.026611
2018-12-13,04:23:14.355,-0.786499,0.46965027,9.532639
2018-12-13,04:23:14.375,-0.62609863,0.6635741999999999,8.546219
2018-12-13,04:23:14.395,-0.4465332,0.48880005,8.096115
2018-12-13,04:23:14.416,-0.33399963,0.306839,8.53186
2018-12-13,04:23:14.435,-0.34118652,0.24938965,8.613266000000001
2018-12-13,04:23:14.454,-0.30526733,0.28768920000000003,8.577347
2018-12-13,04:23:14.474,-0.2693634,0.40022278,8.483978
2018-12-13,04:23:14.493,-0.18077087,0.5941466999999999,8.325958
2018-12-13,04:23:14.513,-0.14486694,0.84313965,8.132019
2018-12-13,04:23:14.535,-0.008392334,1.132843,7.607696499999999
2018-12-13,04:23:14.552,0.32200623,1.4704285,7.3371580000000005
2018-12-13,04:23:14.572,0.47044373,1.5805511,7.605301
2018-12-13,04:23:14.591,0.46566772,1.4895782,8.397781
2018-12-13,04:23:14.612,0.5063629,1.453659,9.360244999999999
2018-12-13,04:23:14.634,0.6236725000000001,1.3195953,10.116821
2018-12-13,04:23:14.651,0.73620605,1.0969238000000001,11.036194
2018-12-13,04:23:14.671,0.7338104,1.0921478,11.993881
2018-12-13,04:23:14.691,0.6907196,1.1208649,12.1064
2018-12-13,04:23:14.711,0.90618896,1.1112976,11.735306
2018-12-13,04:23:14.730,1.028305,1.1687622,11.754456
2018-12-13,04:23:14.750,1.0833588,1.3004303,11.795150999999999
2018-12-13,04:23:14.770,1.3036346,1.2549438,11.402512
2018-12-13,04:23:14.790,1.1647644,0.82159424,11.294769
2018-12-13,04:23:14.809,0.8583069,0.5031738,11.287582
2018-12-13,04:23:14.829,0.72901917,0.50556946,10.799164
2018-12-13,04:23:14.849,0.8678894,0.6492157,9.781630999999999
2018-12-13,04:23:14.868,1.1815338,0.67555237,9.120834
2018-12-13,04:23:14.888,1.32518,0.60372925,8.656357
2018-12-13,04:23:14.908,1.1264648000000002,0.5007782000000001,8.651566
2018-12-13,04:23:14.928,0.8654938,0.36669922,8.699448
2018-12-13,04:23:14.952,0.60691833,0.26853943,8.589325
2018-12-13,04:23:14.967,0.3770752,0.34994507,8.369049
2018-12-13,04:23:14.987,0.21426392,0.6109009,7.933304
2018-12-13,04:23:15.007,0.19511414,0.92933655,7.485595699999999
2018-12-13,04:23:15.027,0.19750977,1.1424254999999999,7.0259094
2018-12-13,04:23:15.046,0.20709229,1.2788848999999998,7.100128
2018-12-13,04:23:15.066,0.14483643,1.2812805,7.72023
2018-12-13,04:23:15.086,0.020339966,1.1495971999999999,8.656357
2018-12-13,04:23:15.105,-0.053878784000000006,1.0610198999999998,9.362639999999999
2018-12-13,04:23:15.125,-0.19752502,1.0873566000000001,9.958801
2018-12-13,04:23:15.145,-0.26457214,1.0442505,10.691421499999999
2018-12-13,04:23:15.165,-0.17837524,0.8551178,11.503067
2018-12-13,04:23:15.184,-0.11373901,0.5726013000000001,12.259628
2018-12-13,04:23:15.204,-0.13768005,0.40979004,12.740860000000001
2018-12-13,04:23:15.223,-0.25738525,0.5773925999999999,12.803116000000001
2018-12-13,04:23:15.243,-0.45370483,1.1424254999999999,11.92923
2018-12-13,04:23:15.263,-0.14007568,1.4321136,10.727341000000001
2018-12-13,04:23:15.283,-0.029937744,0.8479309000000002,10.964371
2018-12-13,04:23:15.302,-0.53271484,0.02192688,11.852615
2018-12-13,04:23:15.322,-0.7410126,-0.2534027,11.696991
2018-12-13,04:23:15.341,-0.62609863,-0.12890625,11.194214
2018-12-13,04:23:15.362,-0.49681090000000006,0.0051727295,10.418488
2018-12-13,04:23:15.383,-0.19514465,-0.02835083,9.343491
2018-12-13,04:23:15.401,0.101745605,-0.03074646,8.859863
2018-12-13,04:23:15.421,0.22384644,0.03390503,8.869446
2018-12-13,04:23:15.441,0.26693726,0.14404297,8.543823
2018-12-13,04:23:15.461,0.33638,0.33078003,8.043442
2018-12-13,04:23:15.483,0.47044373,0.5223236,7.452072
2018-12-13,04:23:15.500,0.4967804,0.6970978,7.4065857
2018-12-13,04:23:15.519,0.41539,0.9915924,7.629242
2018-12-13,04:23:15.540,0.52311707,1.3076172,7.2150419999999995
2018-12-13,04:23:15.559,0.7314148,1.4704285,7.1096954
2018-12-13,04:23:15.579,0.7122649999999999,1.3554993,8.194275
2018-12-13,04:23:15.599,0.58776855,1.1208649,9.575728999999999
2018-12-13,04:23:15.618,0.6595916999999999,1.1304473999999998,10.066544
2018-12-13,04:23:15.638,0.9756316999999999,1.3100128,10.27005
2018-12-13,04:23:15.658,1.1168823,1.401001,10.775223
2018-12-13,04:23:15.678,1.2389832,1.1256561,11.699387
2018-12-13,04:23:15.699,1.3491211,0.840744,12.3745575
2018-12-13,04:23:15.717,1.3993988000000002,0.8742675999999999,12.364975
2018-12-13,04:23:15.736,1.3730621,1.1711578,11.98909
2018-12-13,04:23:15.756,1.5885468,1.2836761,11.270828
2018-12-13,04:23:15.777,1.5478363000000002,0.8766632,11.25885
2018-12-13,04:23:15.796,1.1719513000000001,0.38345337,11.9483795
2018-12-13,04:23:15.817,0.9373169,0.30444336,12.0681
2018-12-13,04:23:15.835,0.99957275,0.5797882,11.0385895
2018-12-13,04:23:15.855,1.3922119,0.83117676,9.55658
2018-12-13,04:23:15.875,1.5670013,0.94369507,8.96521
2018-12-13,04:23:15.895,1.4401093,0.8838501,8.603683
2018-12-13,04:23:15.916,1.1504059,0.7545624,8.527069000000001
2018-12-13,04:23:15.934,0.8583069,0.5917511,8.464813000000001
2018-12-13,04:23:15.953,0.54467773,0.52471924,8.498337
2018-12-13,04:23:15.973,0.33638,0.5845642,8.333145
2018-12-13,04:23:15.993,0.25497437,0.75935364,8.261307
2018-12-13,04:23:16.013,0.3267975,1.0131378,7.7417755
2018-12-13,04:23:16.034,0.44889832,1.3483276000000002,7.258147999999999
2018-12-13,04:23:16.052,0.5733948,1.6571808000000001,7.076186999999999
2018-12-13,04:23:16.072,0.6236725000000001,1.6954803,7.095337
2018-12-13,04:23:16.092,0.46566772,1.5207062,8.024291999999999
2018-12-13,04:23:16.112,0.21188354,1.401001,9.199844
2018-12-13,04:23:16.133,0.11370849599999999,1.4560547,9.819946
2018-12-13,04:23:16.152,0.14004517,1.539856,10.13118
2018-12-13,04:23:16.170,0.111312866,1.401001,10.643539
2018-12-13,04:23:16.191,0.11370849599999999,1.0849608999999998,11.685027999999999
2018-12-13,04:23:16.211,0.065826416,0.93891907,12.630737
2018-12-13,04:23:16.230,-0.046691895,1.0945281999999998,12.556519
2018-12-13,04:23:16.250,-0.17597961,1.6691436999999998,11.670653999999999
2018-12-13,04:23:16.271,-0.094573975,2.0330658,10.859024
2018-12-13,04:23:16.290,-0.015579224,1.6763306,10.897324000000001
2018-12-13,04:23:16.310,-0.17597961,1.0490416999999999,11.407288000000001
2018-12-13,04:23:16.330,-0.30047607,0.840744,11.289978
2018-12-13,04:23:16.352,-0.31724548,0.8838501,10.521438999999999
2018-12-13,04:23:16.368,-0.25738525,0.9460907,10.013869999999999
2018-12-13,04:23:16.388,-0.085006714,0.8263855,9.688263000000001
2018-12-13,04:23:16.408,0.17356873,0.82398987,9.530242999999999
2018-12-13,04:23:16.428,0.40820312,0.74497986,9.187866
2018-12-13,04:23:16.449,0.52072144,0.6611786000000001,9.037033000000001
2018-12-13,04:23:16.467,0.58058167,0.7066803,8.948456
2018-12-13,04:23:16.487,0.5853729,0.96525574,8.460037
2018-12-13,04:23:16.507,0.55903625,1.2788848999999998,7.7729034
2018-12-13,04:23:16.526,0.63565063,1.3626862,7.708252000000001
2018-12-13,04:23:16.546,0.46087646,1.3866272,8.278075999999999
2018-12-13,04:23:16.567,0.22624207,1.3746643,8.618041999999999
2018-12-13,04:23:16.585,0.26693726,1.4033813,8.900558
2018-12-13,04:23:16.605,0.48002625,1.4823913999999998,9.013092
2018-12-13,04:23:16.625,0.57099915,1.5829468,9.2716675
2018-12-13,04:23:16.645,0.7026825,1.6763306,9.55658
2018-12-13,04:23:16.666,0.81521606,1.7457580000000001,10.274841
2018-12-13,04:23:16.684,0.84394836,1.7026671999999998,10.966766
2018-12-13,04:23:16.704,0.8535155999999999,1.4608459999999999,11.093658
2018-12-13,04:23:16.724,0.8678894,1.4225464,11.189423
