date,time,UE4_acc_x,UE4_acc_y,UE4_acc_z
2018-12-13,04:22:37.845,3.510788,23.026016000000002,15.161087
2018-12-13,04:22:37.862,1.7455901999999999,16.906662,12.042572
2018-12-13,04:22:37.904,0.9022064000000001,11.689528999999999,5.7663116
2018-12-13,04:22:37.905,0.64723206,8.335647999999999,3.5892334000000004
2018-12-13,04:22:37.954,0.78453064,8.551392,3.177353
2018-12-13,04:22:37.955,1.255249,9.375153,2.5301207999999997
2018-12-13,04:22:37.983,1.6082916,9.5516815,2.8047028
2018-12-13,04:22:37.984,1.7848053,9.688965,3.0989075
2018-12-13,04:22:37.999,1.5102233999999999,9.904724,2.9223784999999998
2018-12-13,04:22:38.020,1.1179656999999998,9.924332000000001,2.8047028
2018-12-13,04:22:38.041,0.8041381999999999,9.885100999999999,2.9420013
2018-12-13,04:22:38.059,0.58839417,9.630127,3.1381226000000004
2018-12-13,04:22:38.079,0.60801697,9.277084,3.0989075
2018-12-13,04:22:38.099,0.58839417,9.120178,2.8439330000000003
2018-12-13,04:22:38.120,0.64723206,9.139801,2.4908905
2018-12-13,04:22:38.140,0.6864624,9.120178,2.569336
2018-12-13,04:22:38.160,0.8041381999999999,9.159409,2.6674042
2018-12-13,04:22:38.180,0.86299133,9.159409,2.8047028
2018-12-13,04:22:38.203,0.9218291999999999,9.218246,2.7850952
2018-12-13,04:22:38.223,0.9218291999999999,9.257477,2.7850952
2018-12-13,04:22:38.240,0.8825989,9.277084,2.7654723999999997
2018-12-13,04:22:38.261,0.84336853,9.237869,2.7262419999999996
2018-12-13,04:22:38.282,0.6864624,9.179031,2.6674042
2018-12-13,04:22:38.305,0.7060852,9.139801,2.569336
2018-12-13,04:22:38.322,0.8237610000000001,9.198639,2.5889587000000005
2018-12-13,04:22:38.342,0.9218291999999999,9.100571,2.6085662999999997
2018-12-13,04:22:38.361,0.9610443000000001,9.041733,2.628189
2018-12-13,04:22:38.380,1.0002746999999999,9.06134,2.5497284
2018-12-13,04:22:38.403,0.84336853,9.198639,2.510498
2018-12-13,04:22:38.423,0.58839417,9.277084,2.5497284
2018-12-13,04:22:38.442,0.43148804,9.4339905,2.628189
2018-12-13,04:22:38.462,0.25497437,9.473221,2.7262419999999996
2018-12-13,04:22:38.487,0.37265015,9.355545,2.5889587000000005
2018-12-13,04:22:38.504,0.5491791,9.257477,2.5889587000000005
2018-12-13,04:22:38.523,0.8041381999999999,9.179031,2.4320526
2018-12-13,04:22:38.543,1.0198975000000001,9.179031,2.3928222999999997
2018-12-13,04:22:38.563,1.0002746999999999,9.237869,2.4320526
2018-12-13,04:22:38.583,0.86299133,9.316315,2.3732147
2018-12-13,04:22:38.604,0.6864624,9.453613,2.4516602
2018-12-13,04:22:38.625,0.49032593,9.571289,2.5301207999999997
2018-12-13,04:22:38.643,0.3334198,9.806656,2.7262419999999996
2018-12-13,04:22:38.664,0.31381226,10.120467999999999,3.0792847
2018-12-13,04:22:38.688,0.43148804,10.159683,3.2361908
2018-12-13,04:22:38.704,0.58839417,9.943939,3.1969604
2018-12-13,04:22:38.725,0.6864624,9.669357000000002,3.0400543
2018-12-13,04:22:38.744,0.66685486,9.512450999999999,2.8831482000000004
2018-12-13,04:22:38.764,0.45111084,9.4339905,2.8243103
2018-12-13,04:22:38.786,0.27458190000000005,9.237869,2.8439330000000003
2018-12-13,04:22:38.805,0.039230347,9.120178,3.0008392
2018-12-13,04:22:38.826,-0.11767578,9.06134,3.0204467999999998
2018-12-13,04:22:38.845,-0.27458190000000005,9.022125,3.0596771
2018-12-13,04:22:38.865,-0.19613647,8.982895,3.0400543
2018-12-13,04:22:38.888,-0.019607543999999998,8.943665,3.0204467999999998
2018-12-13,04:22:38.905,0.21574402,8.825989,3.1381226000000004
2018-12-13,04:22:38.925,0.39227295,8.590622,3.2754211
2018-12-13,04:22:38.946,0.5687866,8.433716,3.510788
2018-12-13,04:22:38.966,0.8041381999999999,8.394485000000001,3.726532
2018-12-13,04:22:38.986,0.7453003,8.629852,3.9618835
2018-12-13,04:22:39.006,0.50994873,8.884827,4.0207214
2018-12-13,04:22:39.026,0.50994873,8.884827,4.0207214
2018-12-13,04:22:39.046,-0.13729858,9.4339905,3.393097
2018-12-13,04:22:39.070,-0.41188050000000004,9.688965,3.1381226000000004
2018-12-13,04:22:39.089,-0.6276245,9.885100999999999,3.118515
2018-12-13,04:22:39.108,-0.64723206,9.826263,3.3146515
2018-12-13,04:22:39.127,-0.58839417,9.571289,3.3538818
2018-12-13,04:22:39.147,-0.58839417,9.571289,3.3538818
2018-12-13,04:22:39.170,-0.49032593,9.3359375,3.4127197
2018-12-13,04:22:39.189,-0.25497437,9.316315,3.3538818
2018-12-13,04:22:39.208,0.0,9.179031,3.177353
2018-12-13,04:22:39.228,0.19613647,9.002502,2.7850952
2018-12-13,04:22:39.246,0.23536682,8.865219,2.4516602
2018-12-13,04:22:39.270,0.09806824,8.904434,2.294754
2018-12-13,04:22:39.289,-0.039230347,8.943665,2.3928222999999997
2018-12-13,04:22:39.308,-0.13729858,9.06134,2.4320526
2018-12-13,04:22:39.329,-0.27458190000000005,9.120178,2.471283
2018-12-13,04:22:39.349,-0.37265015,9.159409,2.4320526
2018-12-13,04:22:39.370,-0.43148804,8.982895,2.3732147
2018-12-13,04:22:39.389,-0.45111084,8.747527999999999,2.3732147
2018-12-13,04:22:39.409,-0.45111084,8.571014,2.294754
2018-12-13,04:22:39.430,-0.45111084,8.472946,2.2359161
2018-12-13,04:22:39.466,-0.45111084,8.629852,2.2359161
2018-12-13,04:22:39.470,-0.37265015,8.943665,2.1966857999999996
2018-12-13,04:22:39.491,-0.31381226,9.296707000000001,2.2359161
2018-12-13,04:22:39.510,-0.25497437,9.571289,2.4320526
2018-12-13,04:22:39.530,-0.27458190000000005,10.296982,2.902771
2018-12-13,04:22:39.550,0.0,11.238419,3.4911652
2018-12-13,04:22:39.573,0.37265015,11.767975,4.001114
2018-12-13,04:22:39.590,0.7453003,11.316879,3.942276
2018-12-13,04:22:39.610,1.2160187,10.414658,3.8246002
2018-12-13,04:22:39.631,1.431778,9.414383,3.510788
2018-12-13,04:22:39.655,1.2160187,8.453339,3.510788
2018-12-13,04:22:39.672,0.7453003,7.8453217,3.726532
2018-12-13,04:22:39.692,0.43148804,7.7668610000000005,4.040344
2018-12-13,04:22:39.712,0.3334198,8.159134,4.1972504
2018-12-13,04:22:39.731,0.6276245,8.669083,4.216858
2018-12-13,04:22:39.754,1.1571808000000001,9.296707000000001,3.9030457000000003
2018-12-13,04:22:39.771,1.6082916,9.610519,3.393097
2018-12-13,04:22:39.791,2.07901,9.767425999999999,2.961609
2018-12-13,04:22:39.812,2.2555237,9.64975,2.7262419999999996
2018-12-13,04:22:39.832,1.9613342,9.375153,2.6477966
2018-12-13,04:22:39.856,1.6671295,9.120178,2.7262419999999996
2018-12-13,04:22:39.880,1.3925476,8.982895,2.8831482000000004
2018-12-13,04:22:39.900,1.0198975000000001,8.963272,3.0204467999999998
2018-12-13,04:22:39.912,0.8237610000000001,9.041733,3.118515
2018-12-13,04:22:39.933,0.50994873,9.022125,3.3146515
2018-12-13,04:22:39.967,0.23536682,9.002502,3.2950287000000005
2018-12-13,04:22:39.974,0.39227295,9.022125,3.0792847
2018-12-13,04:22:40.002,0.60801697,9.041733,2.7850952
2018-12-13,04:22:40.013,0.84336853,9.041733,2.6477966
2018-12-13,04:22:40.036,1.0198975000000001,9.002502,2.7066345000000003
2018-12-13,04:22:40.066,1.0198975000000001,8.943665,2.8439330000000003
2018-12-13,04:22:40.073,0.9218291999999999,8.767151,2.8439330000000003
2018-12-13,04:22:40.095,0.6864624,8.68869,2.8635406000000003
2018-12-13,04:22:40.114,0.39227295,8.571014,2.7066345000000003
2018-12-13,04:22:40.135,0.3334198,8.610244999999999,2.6477966
2018-12-13,04:22:40.157,0.50994873,8.825989,2.4908905
2018-12-13,04:22:40.174,0.8041381999999999,9.100571,2.4908905
2018-12-13,04:22:40.194,0.9610443000000001,9.237869,2.6085662999999997
2018-12-13,04:22:40.213,0.9610443000000001,9.257477,2.687027
2018-12-13,04:22:40.237,0.8825989,9.257477,2.7850952
2018-12-13,04:22:40.268,0.7649231,9.257477,2.8047028
2018-12-13,04:22:40.275,0.49032593,9.159409,2.7850952
2018-12-13,04:22:40.296,0.27458190000000005,9.120178,2.6674042
2018-12-13,04:22:40.315,0.019607543999999998,9.218246,2.5497284
2018-12-13,04:22:40.336,-0.09806824,9.532059,2.4516602
2018-12-13,04:22:40.357,-0.019607543999999998,10.179306,2.6085662999999997
2018-12-13,04:22:40.376,0.11767578,10.591187,2.7850952
2018-12-13,04:22:40.397,0.37265015,10.453888000000001,2.961609
2018-12-13,04:22:40.421,0.45111084,10.042007,3.4127197
2018-12-13,04:22:40.443,0.39227295,9.375153,4.15802
2018-12-13,04:22:40.458,0.49032593,8.924057000000001,4.9033203
2018-12-13,04:22:40.477,0.9022064000000001,8.806366,5.138687
2018-12-13,04:22:40.498,1.3925476,8.904434,4.9033203
2018-12-13,04:22:40.516,1.3337097,9.06134,4.4522247
2018-12-13,04:22:40.538,0.7649231,9.237869,3.9226532
2018-12-13,04:22:40.559,0.13729858,9.237869,3.4715576
2018-12-13,04:22:40.577,-0.37265015,9.296707000000001,3.2361908
2018-12-13,04:22:40.599,-0.66685486,9.296707000000001,3.177353
2018-12-13,04:22:40.625,-0.9806671,9.492844,3.4519347999999996
2018-12-13,04:22:40.643,-0.94143677,9.394775,3.8049774
2018-12-13,04:22:40.662,-0.7453003,9.237869,4.001114
2018-12-13,04:22:40.681,-0.37265015,9.002502,3.726532
2018-12-13,04:22:40.698,-0.37265015,9.002502,3.726532
2018-12-13,04:22:40.724,-0.039230347,8.786758,3.3146515
2018-12-13,04:22:40.741,0.13729858,8.747527999999999,2.9223784999999998
2018-12-13,04:22:40.758,0.39227295,8.747527999999999,2.6674042
2018-12-13,04:22:40.780,0.58839417,8.845596,2.5497284
2018-12-13,04:22:40.800,0.6864624,8.767151,2.5301207999999997
2018-12-13,04:22:40.822,0.58839417,8.669083,2.5497284
2018-12-13,04:22:40.841,0.41188050000000004,8.472946,2.471283
2018-12-13,04:22:40.858,0.13729858,8.31604,2.5301207999999997
2018-12-13,04:22:40.883,-0.019607543999999998,8.276810000000001,2.569336
2018-12-13,04:22:40.907,-0.25497437,8.433716,2.6477966
2018-12-13,04:22:40.930,-0.41188050000000004,8.767151,2.7262419999999996
2018-12-13,04:22:40.945,-0.039230347,9.257477,3.0792847
2018-12-13,04:22:40.960,0.45111084,9.64975,3.2754211
2018-12-13,04:22:40.981,0.9610443000000001,9.806656,3.0792847
2018-12-13,04:22:41.007,1.0591125,9.64975,2.7850952
2018-12-13,04:22:41.023,0.5491791,9.277084,2.4124298
2018-12-13,04:22:41.042,0.15690613,9.296707000000001,2.2163086
2018-12-13,04:22:41.060,-0.3334198,9.845871,2.3732147
2018-12-13,04:22:41.084,-0.6276245,10.669632,3.0400543
2018-12-13,04:22:41.121,-0.07846069,10.904999,3.6480713
2018-12-13,04:22:41.123,0.8041381999999999,10.748092999999999,4.0795593
2018-12-13,04:22:41.143,1.6671295,10.081238,4.15802
2018-12-13,04:22:41.161,2.0986176,9.139801,4.0207214
2018-12-13,04:22:41.182,2.1966857999999996,8.002228,3.6088410000000004
2018-12-13,04:22:41.213,1.9221039,7.060791,3.1577453999999996
2018-12-13,04:22:41.224,1.6671295,7.119629,3.2558136
2018-12-13,04:22:41.243,1.6278992,7.727646000000001,3.4519347999999996
2018-12-13,04:22:41.261,1.6475220000000002,8.571014,3.6480713
2018-12-13,04:22:41.282,1.8044281000000002,9.237869,3.7461394999999995
2018-12-13,04:22:41.302,2.1574554,9.688965,3.5892334000000004
2018-12-13,04:22:41.323,2.2555237,9.767425999999999,3.3734894
2018-12-13,04:22:41.343,2.4124298,9.630127,2.961609
2018-12-13,04:22:41.364,2.0005493000000003,9.296707000000001,3.0400543
2018-12-13,04:22:41.383,1.6475220000000002,9.041733,2.9223784999999998
2018-12-13,04:22:41.407,1.2356415,8.767151,2.8831482000000004
2018-12-13,04:22:41.428,0.9806671,8.669083,2.8243103
2018-12-13,04:22:41.445,0.78453064,8.747527999999999,2.7066345000000003
2018-12-13,04:22:41.463,0.8041381999999999,8.924057000000001,2.7654723999999997
2018-12-13,04:22:41.491,1.0787354,8.982895,2.8243103
2018-12-13,04:22:41.507,1.255249,8.963272,2.8635406000000003
2018-12-13,04:22:41.524,1.4121552,8.982895,2.8243103
2018-12-13,04:22:41.544,1.3729248,9.022125,2.7262419999999996
2018-12-13,04:22:41.564,1.2748718,8.963272,2.6477966
2018-12-13,04:22:41.602,1.2748718,8.865219,2.5889587000000005
2018-12-13,04:22:41.608,1.2944794,8.767151,2.4908905
2018-12-13,04:22:41.636,1.2944794,8.571014,2.353592
2018-12-13,04:22:41.646,1.3533173,8.492554,2.3339844
2018-12-13,04:22:41.673,1.2944794,8.453339,2.5301207999999997
2018-12-13,04:22:41.691,1.1375732,8.610244999999999,2.5301207999999997
2018-12-13,04:22:41.705,1.0198975000000001,8.865219,2.6085662999999997
2018-12-13,04:22:41.724,0.9610443000000001,9.139801,2.4516602
2018-12-13,04:22:41.747,1.039505,9.375153,2.4124298
2018-12-13,04:22:41.766,1.0002746999999999,9.453613,2.5301207999999997
2018-12-13,04:22:41.788,0.84336853,9.4339905,2.7458649
2018-12-13,04:22:41.806,0.49032593,9.688965,3.0008392
2018-12-13,04:22:41.826,0.13729858,10.277374,3.118515
2018-12-13,04:22:41.847,-0.15690613,11.179580999999999,3.2361908
2018-12-13,04:22:41.872,-0.27458190000000005,11.532623,3.1577453999999996
2018-12-13,04:22:41.890,-0.09806824,11.218811,3.0989075
2018-12-13,04:22:41.908,0.019607543999999998,10.179306,3.3734894
2018-12-13,04:22:41.927,0.039230347,8.963272,4.001114
2018-12-13,04:22:41.947,0.23536682,8.217972,4.981781
2018-12-13,04:22:41.968,0.45111084,8.021835000000001,5.393661499999999
2018-12-13,04:22:41.990,1.039505,8.492554,5.1779175
2018-12-13,04:22:42.011,1.0787354,8.747527999999999,4.550293
2018-12-13,04:22:42.028,0.58839417,8.806366,3.942276
2018-12-13,04:22:42.048,-0.05883789,9.002502,3.6284637
2018-12-13,04:22:42.073,-0.49032593,9.237869,3.4127197
2018-12-13,04:22:42.090,-1.0787354,9.296707000000001,3.393097
2018-12-13,04:22:42.108,-1.8240356,9.139801,3.2950287000000005
2018-12-13,04:22:42.129,-1.6475220000000002,8.845596,3.1381226000000004
2018-12-13,04:22:42.148,-1.2748718,8.5121765,3.1381226000000004
2018-12-13,04:22:42.173,-0.8237610000000001,8.2964325,3.0792847
2018-12-13,04:22:42.190,-0.3334198,8.2964325,2.8243103
2018-12-13,04:22:42.209,-0.07846069,8.472946,2.5889587000000005
2018-12-13,04:22:42.229,-0.07846069,8.472946,2.5889587000000005
2018-12-13,04:22:42.250,0.039230347,8.68869,2.2163086
2018-12-13,04:22:42.273,-0.13729858,8.825989,2.0397797
2018-12-13,04:22:42.294,-0.43148804,8.884827,1.9417113999999998
2018-12-13,04:22:42.312,-0.7453003,8.786758,2.0005493000000003
2018-12-13,04:22:42.329,-0.84336853,8.68869,2.137848
2018-12-13,04:22:42.349,-0.8041381999999999,8.610244999999999,2.353592
2018-12-13,04:22:42.370,-0.7649231,8.747527999999999,2.471283
2018-12-13,04:22:42.390,-0.72569275,9.06134,2.4908905
2018-12-13,04:22:42.409,-0.5687866,9.5516815,2.569336
2018-12-13,04:22:42.430,-0.49032593,9.865494,2.6674042
2018-12-13,04:22:42.451,-0.41188050000000004,9.963562,2.5301207999999997
2018-12-13,04:22:42.470,-0.3530426,9.924332000000001,2.4516602
2018-12-13,04:22:42.490,-0.43148804,10.120467999999999,2.628189
2018-12-13,04:22:42.511,-0.47071838,10.708862,3.0008392
2018-12-13,04:22:42.531,-0.37265015,11.611069,3.393097
2018-12-13,04:22:42.554,-0.13729858,12.336761,4.059952
2018-12-13,04:22:42.575,0.43148804,11.807205,4.3737639999999995
2018-12-13,04:22:42.591,1.1375732,10.806931,4.4522247
2018-12-13,04:22:42.612,1.8240356,9.492844,4.4129944000000005
2018-12-13,04:22:42.642,2.3339844,8.159134,4.4718323
2018-12-13,04:22:42.654,1.9417113999999998,7.5707397,4.864105
2018-12-13,04:22:42.673,0.9022064000000001,7.3746032999999995,4.883712999999999
2018-12-13,04:22:42.690,-0.039230347,7.4726715,4.5110626
2018-12-13,04:22:42.712,-0.13729858,7.943389999999999,4.040344
2018-12-13,04:22:42.733,0.50994873,8.2964325,3.5303955
2018-12-13,04:22:42.756,1.0983428999999998,8.571014,3.2950287000000005
2018-12-13,04:22:42.773,1.5690613000000002,8.825989,3.2950287000000005
2018-12-13,04:22:42.793,1.6082916,8.963272,2.961609
2018-12-13,04:22:42.813,1.1964111000000002,8.825989,2.961609
2018-12-13,04:22:42.838,1.0002746999999999,8.669083,3.0792847
2018-12-13,04:22:42.854,0.9022064000000001,8.649460000000001,3.2165833
2018-12-13,04:22:42.873,0.9218291999999999,8.865219,3.2165833
2018-12-13,04:22:42.893,0.9806671,9.022125,3.0596771
2018-12-13,04:22:42.912,1.0787354,8.924057000000001,2.9420013
2018-12-13,04:22:42.934,1.0198975000000001,8.629852,2.9223784999999998
2018-12-13,04:22:42.958,0.9218291999999999,8.472946,2.687027
2018-12-13,04:22:42.975,0.78453064,8.453339,2.4124298
2018-12-13,04:22:42.994,0.78453064,8.394485000000001,2.294754
2018-12-13,04:22:43.015,0.78453064,8.31604,2.294754
2018-12-13,04:22:43.044,0.9022064000000001,8.355269999999999,2.4516602
2018-12-13,04:22:43.063,1.1768036,8.433716,2.4908905
2018-12-13,04:22:43.080,1.470993,8.590622,2.4516602
2018-12-13,04:22:43.097,1.8044281000000002,8.786758,2.2359161
2018-12-13,04:22:43.116,2.471283,9.100571,1.863266
2018-12-13,04:22:43.138,2.4320526,9.610519,2.020172
2018-12-13,04:22:43.155,2.1574554,10.002777,2.3928222999999997
2018-12-13,04:22:43.175,1.5494537,10.3754425,2.8635406000000003
2018-12-13,04:22:43.195,0.5491791,10.277374,3.2165833
2018-12-13,04:22:43.215,0.0,9.98317,3.0792847
2018-12-13,04:22:43.237,0.039230347,9.904724,2.7262419999999996
2018-12-13,04:22:43.257,0.3334198,10.081238,2.471283
2018-12-13,04:22:43.276,0.60801697,10.591187,2.4124298
2018-12-13,04:22:43.296,0.7649231,11.061905,2.3143768
2018-12-13,04:22:43.316,0.84336853,10.944214,2.510498
2018-12-13,04:22:43.339,0.7060852,10.081238,3.2361908
2018-12-13,04:22:43.357,0.09806824,9.296707000000001,4.864105
2018-12-13,04:22:43.384,-0.7453003,9.120178,6.2566375999999995
2018-12-13,04:22:43.396,-1.1571808000000001,9.257477,6.688141000000001
2018-12-13,04:22:43.416,-0.19613647,8.649460000000001,5.7074738
2018-12-13,04:22:43.437,0.3530426,8.374878,4.432601999999999
2018-12-13,04:22:43.457,0.3530426,8.727921,3.4715576
2018-12-13,04:22:43.622,-0.09806824,9.139801,2.8243103
2018-12-13,04:22:43.623,-0.49032593,8.747527999999999,2.6477966
2018-12-13,04:22:43.623,-0.8825989,8.335647999999999,2.8047028
2018-12-13,04:22:43.624,-0.84336853,8.433716,3.0204467999999998
2018-12-13,04:22:43.625,-0.49032593,8.590622,3.0596771
2018-12-13,04:22:43.626,0.019607543999999998,8.551392,3.118515
2018-12-13,04:22:43.627,0.3334198,8.453339,2.9420013
2018-12-13,04:22:43.628,0.49032593,8.590622,2.471283
2018-12-13,04:22:43.654,0.45111084,8.786758,2.0397797
2018-12-13,04:22:43.659,0.27458190000000005,8.865219,1.8240356
2018-12-13,04:22:43.680,0.05883789,8.747527999999999,1.8436432
2018-12-13,04:22:43.699,-0.13729858,8.571014,1.863266
2018-12-13,04:22:43.721,-0.2942047,8.2964325,1.8240356
2018-12-13,04:22:43.740,-0.2942047,8.2964325,1.8240356
2018-12-13,04:22:43.760,-0.49032593,8.276810000000001,1.9221039
2018-12-13,04:22:43.779,-0.58839417,8.531784,2.0986176
2018-12-13,04:22:43.800,-0.6864624,8.943665,2.1966857999999996
2018-12-13,04:22:43.826,-0.86299133,9.512450999999999,2.3928222999999997
2018-12-13,04:22:43.840,-1.0591125,9.747803,2.4908905
2018-12-13,04:22:43.861,-1.1375732,9.806656,2.628189
2018-12-13,04:22:43.880,-0.8825989,9.885100999999999,2.7066345000000003
2018-12-13,04:22:43.904,-0.58839417,10.591187,3.0792847
2018-12-13,04:22:43.921,-0.13729858,11.787598,3.4519347999999996
2018-12-13,04:22:43.941,0.39227295,12.729034,3.726532
2018-12-13,04:22:43.961,0.86299133,12.375992,3.765747
2018-12-13,04:22:43.982,1.1768036,11.179580999999999,3.7853699
2018-12-13,04:22:44.003,1.5690613000000002,9.610519,4.040344
2018-12-13,04:22:44.023,1.470993,8.472946,4.550293
2018-12-13,04:22:44.042,0.9218291999999999,7.884552,5.217132599999999
2018-12-13,04:22:44.063,0.17651367,7.9041595000000004,5.2955933
2018-12-13,04:22:44.089,-0.47071838,8.139526,4.609131
2018-12-13,04:22:44.106,-0.19613647,8.433716,3.8638152999999997
2018-12-13,04:22:44.123,0.31381226,8.924057000000001,3.2361908
2018-12-13,04:22:44.142,0.94143677,9.159409,2.8831482000000004
2018-12-13,04:22:44.162,1.5102233999999999,9.06134,2.5889587000000005
2018-12-13,04:22:44.182,1.863266,8.806366,2.3928222999999997
2018-12-13,04:22:44.216,1.9613342,8.629852,1.9809418
2018-12-13,04:22:44.223,1.7259673999999998,8.649460000000001,2.1966857999999996
2018-12-13,04:22:44.243,1.3729248,8.669083,2.6674042
2018-12-13,04:22:44.264,1.0002746999999999,8.786758,2.902771
2018-12-13,04:22:44.290,0.7649231,8.924057000000001,2.9223784999999998
2018-12-13,04:22:44.305,0.60801697,9.002502,2.5889587000000005
2018-12-13,04:22:44.324,0.64723206,9.120178,2.3732147
2018-12-13,04:22:44.344,0.66685486,9.139801,2.2359161
2018-12-13,04:22:44.364,0.8825989,9.022125,2.0986176
2018-12-13,04:22:44.387,0.94143677,8.865219,2.020172
2018-12-13,04:22:44.405,1.1179656999999998,8.727921,1.9221039
2018-12-13,04:22:44.424,1.3337097,8.747527999999999,1.9221039
2018-12-13,04:22:44.444,1.4906158,8.943665,1.9809418
2018-12-13,04:22:44.466,1.6475220000000002,9.355545,2.0986176
2018-12-13,04:22:44.490,1.6475220000000002,9.826263,2.3143768
2018-12-13,04:22:44.505,1.4513855,10.140075999999999,2.510498
2018-12-13,04:22:44.525,0.9610443000000001,10.238144,2.628189
2018-12-13,04:22:44.545,0.41188050000000004,10.140075999999999,2.687027
2018-12-13,04:22:44.566,0.19613647,10.042007,2.6674042
2018-12-13,04:22:44.588,0.3530426,10.238144,2.687027
2018-12-13,04:22:44.606,0.5491791,10.610794,2.687027
2018-12-13,04:22:44.626,0.31381226,10.218536,2.628189
2018-12-13,04:22:44.645,0.039230347,9.865494,2.8439330000000003
2018-12-13,04:22:44.667,-0.23536682,9.826263,3.510788
2018-12-13,04:22:44.689,-0.60801697,9.473221,4.942550700000001
2018-12-13,04:22:44.708,-1.1571808000000001,9.159409,5.90361
2018-12-13,04:22:44.729,-0.78453064,8.884827,6.374328599999999
2018-12-13,04:22:44.745,0.21574402,8.472946,6.0408935999999995
2018-12-13,04:22:44.768,0.5687866,8.002228,4.922943
2018-12-13,04:22:44.791,0.5295563,8.100296,3.942276
2018-12-13,04:22:44.807,-0.019607543999999998,8.472946,3.1577453999999996
2018-12-13,04:22:44.827,-0.66685486,8.767151,3.1381226000000004
2018-12-13,04:22:44.848,-1.2748718,8.590622,3.1577453999999996
2018-12-13,04:22:44.871,-1.3533173,8.414108,3.3538818
2018-12-13,04:22:44.893,-1.039505,8.257202000000001,3.3146515
2018-12-13,04:22:44.908,-0.72569275,8.178741,3.2754211
2018-12-13,04:22:44.929,-0.47071838,8.178741,3.1969604
2018-12-13,04:22:44.948,-0.27458190000000005,8.433716,2.8635406000000003
2018-12-13,04:22:44.975,-0.15690613,8.610244999999999,2.6085662999999997
2018-12-13,04:22:44.989,-0.039230347,8.806366,2.471283
2018-12-13,04:22:45.009,-0.09806824,8.786758,2.4320526
2018-12-13,04:22:45.029,-0.11767578,8.629852,2.569336
2018-12-13,04:22:45.049,-0.21574402,8.551392,2.6085662999999997
2018-12-13,04:22:45.080,-0.23536682,8.433716,2.5889587000000005
2018-12-13,04:22:45.100,-0.27458190000000005,8.590622,2.4516602
2018-12-13,04:22:45.109,-0.47071838,8.865219,2.4320526
2018-12-13,04:22:45.131,-0.5295563,9.198639,2.5301207999999997
2018-12-13,04:22:45.150,-0.5295563,9.688965,2.7850952
2018-12-13,04:22:45.172,-0.37265015,10.002777,2.902771
2018-12-13,04:22:45.191,-0.05883789,9.963562,2.8439330000000003
2018-12-13,04:22:45.210,0.05883789,9.845871,2.510498
2018-12-13,04:22:45.230,0.17651367,10.042007,2.3732147
2018-12-13,04:22:45.255,0.17651367,10.042007,2.3732147
2018-12-13,04:22:45.273,0.27458190000000005,10.865768,2.471283
2018-12-13,04:22:45.299,0.3334198,11.866043,2.9420013
2018-12-13,04:22:45.310,0.31381226,12.042572,3.3734894
2018-12-13,04:22:45.331,0.5491791,11.179580999999999,3.6088410000000004
2018-12-13,04:22:45.360,0.9022064000000001,10.120467999999999,3.726532
2018-12-13,04:22:45.374,1.039505,8.865219,3.942276
2018-12-13,04:22:45.391,0.9610443000000001,7.786484,4.4129944000000005
2018-12-13,04:22:45.412,0.58839417,7.492278999999999,4.7856445
2018-12-13,04:22:45.432,0.0,7.943389999999999,4.707199
2018-12-13,04:22:45.455,-0.37265015,8.276810000000001,4.2560883
2018-12-13,04:22:45.473,-0.07846069,8.747527999999999,3.7069092000000006
2018-12-13,04:22:45.496,0.43148804,9.355545,3.2754211
2018-12-13,04:22:45.516,0.8041381999999999,9.806656,2.9812164
2018-12-13,04:22:45.540,1.2944794,9.865494,2.8439330000000003
2018-12-13,04:22:45.555,1.3140869,9.64975,2.5889587000000005
2018-12-13,04:22:45.572,1.1571808000000001,9.4339905,2.5889587000000005
2018-12-13,04:22:45.592,1.0591125,9.237869,2.8635406000000003
2018-12-13,04:22:45.611,1.0198975000000001,9.120178,3.0596771
2018-12-13,04:22:45.632,1.0787354,8.904434,2.9223784999999998
2018-12-13,04:22:45.653,0.94143677,8.825989,2.7850952
2018-12-13,04:22:45.674,0.66685486,8.649460000000001,2.4124298
2018-12-13,04:22:45.693,0.39227295,8.531784,2.0594025
2018-12-13,04:22:45.712,0.19613647,8.590622,1.8436432
2018-12-13,04:22:45.733,0.25497437,8.727921,1.8240356
2018-12-13,04:22:45.754,0.45111084,8.669083,1.8828735
2018-12-13,04:22:45.774,0.7060852,8.414108,1.9024963
2018-12-13,04:22:45.794,0.84336853,8.2964325,1.863266
2018-12-13,04:22:45.814,0.7649231,8.5121765,2.0594025
2018-12-13,04:22:45.834,0.64723206,9.080963,2.4124298
2018-12-13,04:22:45.857,0.3530426,9.610519,2.8635406000000003
2018-12-13,04:22:45.875,-0.37265015,9.943939,3.2361908
2018-12-13,04:22:45.898,-1.255249,10.061630000000001,3.2165833
2018-12-13,04:22:45.915,-0.78453064,9.826263,2.902771
2018-12-13,04:22:45.940,-0.05883789,10.0224,2.8439330000000003
2018-12-13,04:22:45.962,0.43148804,10.826538000000001,2.8635406000000003
2018-12-13,04:22:45.977,0.6864624,11.728760000000001,3.0792847
2018-12-13,04:22:45.995,0.39227295,11.630692,3.5892334000000004
2018-12-13,04:22:46.016,-0.13729858,11.022675,4.432601999999999
2018-12-13,04:22:46.034,-1.0591125,10.257750999999999,5.8839874000000005
2018-12-13,04:22:46.060,-1.9024963,9.002502,6.668518
2018-12-13,04:22:46.078,-1.039505,7.5315094,6.393936
2018-12-13,04:22:46.102,-0.27458190000000005,6.5312347,5.2563629999999995
2018-12-13,04:22:46.117,0.5295563,6.452774,4.0207214
2018-12-13,04:22:46.138,0.6864624,7.237304700000001,3.3734894
2018-12-13,04:22:46.156,0.15690613,8.178741,3.118515
2018-12-13,04:22:46.177,-0.66685486,8.943665,3.1969604
2018-12-13,04:22:46.196,-1.3729248,9.296707000000001,3.334259
2018-12-13,04:22:46.218,-1.7063598999999998,9.375153,3.7069092000000006
2018-12-13,04:22:46.242,-1.3337097,9.100571,3.3734894
2018-12-13,04:22:46.263,-0.94143677,8.727921,3.4519347999999996
2018-12-13,04:22:46.284,-0.7060852,8.531784,3.2165833
2018-12-13,04:22:46.297,-0.7060852,8.453339,3.0596771
2018-12-13,04:22:46.318,-0.66685486,8.492554,3.0204467999999998
2018-12-13,04:22:46.342,-0.47071838,8.610244999999999,2.8439330000000003
2018-12-13,04:22:46.357,-0.3334198,8.669083,2.7262419999999996
2018-12-13,04:22:46.382,-0.3334198,8.492554,2.5301207999999997
2018-12-13,04:22:46.401,-0.39227295,8.355269999999999,2.3928222999999997
2018-12-13,04:22:46.428,-0.6276245,8.374878,2.2359161
2018-12-13,04:22:46.442,-0.78453064,8.414108,2.1966857999999996
2018-12-13,04:22:46.458,-0.9022064000000001,8.5121765,2.2163086
2018-12-13,04:22:46.482,-0.8825989,8.708298,2.2163086
2018-12-13,04:22:46.507,-0.72569275,9.159409,2.2751465
2018-12-13,04:22:46.526,-0.64723206,9.688965,2.4516602
2018-12-13,04:22:46.541,-0.60801697,10.277374,2.7262419999999996
2018-12-13,04:22:46.559,-0.3530426,10.277374,2.7850952
2018-12-13,04:22:46.578,-0.15690613,9.963562,2.6674042
2018-12-13,04:22:46.600,-0.19613647,9.845871,2.3732147
2018-12-13,04:22:46.621,-0.3334198,10.434280000000001,2.4908905
2018-12-13,04:22:46.641,-0.50994873,11.336487,2.8047028
2018-12-13,04:22:46.660,-0.15690613,11.905273,3.4323273000000003
2018-12-13,04:22:46.680,-0.05883789,11.375717,3.726532
2018-12-13,04:22:46.707,0.37265015,10.39505,3.7853699
2018-12-13,04:22:46.725,1.1964111000000002,9.3359375,4.15802
2018-12-13,04:22:46.742,1.7455901999999999,8.433716,4.824875
2018-12-13,04:22:46.761,1.7455901999999999,8.139526,5.6094055
2018-12-13,04:22:46.782,1.6867371,8.139526,5.6094055
2018-12-13,04:22:46.808,0.8237610000000001,7.9826202,5.354431
2018-12-13,04:22:46.825,0.21574402,8.080672999999999,4.4522247
2018-12-13,04:22:46.842,0.27458190000000005,8.571014,3.7069092000000006
2018-12-13,04:22:46.862,0.7649231,9.159409,3.1969604
2018-12-13,04:22:46.890,1.3533173,9.296707000000001,2.8047028
2018-12-13,04:22:46.907,1.7848053,8.845596,2.7654723999999997
2018-12-13,04:22:46.924,1.6671295,8.414108,2.5889587000000005
2018-12-13,04:22:46.943,1.1768036,8.257202000000001,2.3928222999999997
2018-12-13,04:22:46.962,0.7060852,8.433716,2.4908905
2018-12-13,04:22:46.983,0.21574402,8.786758,2.7066345000000003
2018-12-13,04:22:47.006,0.039230347,9.179031,2.569336
2018-12-13,04:22:47.024,0.07846069,9.355545,2.569336
2018-12-13,04:22:47.043,0.23536682,9.375153,2.5301207999999997
2018-12-13,04:22:47.063,0.2942047,9.257477,2.4516602
2018-12-13,04:22:47.093,0.3530426,9.179031,2.3339844
2018-12-13,04:22:47.106,0.47071838,9.06134,2.2163086
2018-12-13,04:22:47.122,0.58839417,8.884827,1.863266
2018-12-13,04:22:47.144,0.6276245,8.708298,1.7848053
2018-12-13,04:22:47.163,0.7649231,8.649460000000001,1.7848053
2018-12-13,04:22:47.184,0.8825989,8.786758,1.8436432
2018-12-13,04:22:47.213,0.9218291999999999,9.159409,1.9613342
2018-12-13,04:22:47.222,0.8041381999999999,9.5516815,2.2163086
2018-12-13,04:22:47.247,0.3530426,9.865494,2.3732147
2018-12-13,04:22:47.264,-0.19613647,10.061630000000001,2.471283
2018-12-13,04:22:47.292,-0.50994873,10.198914,2.628189
2018-12-13,04:22:47.309,-0.09806824,10.120467999999999,2.7262419999999996
2018-12-13,04:22:47.325,0.27458190000000005,10.4734955,2.8439330000000003
2018-12-13,04:22:47.345,0.64723206,11.454163000000001,3.1381226000000004
2018-12-13,04:22:47.366,0.6864624,11.591461,3.4323273000000003
2018-12-13,04:22:47.392,0.25497437,10.689255000000001,3.7461394999999995
2018-12-13,04:22:47.413,-0.25497437,9.708588,4.5699005
2018-12-13,04:22:47.432,-1.2356415,9.120178,5.746704
2018-12-13,04:22:47.445,-1.0002746999999999,8.708298,6.413543700000001
2018-12-13,04:22:47.473,-0.11767578,8.139526,6.1193542
2018-12-13,04:22:47.494,0.49032593,7.453048700000001,5.217132599999999
2018-12-13,04:22:47.511,0.58839417,7.453048700000001,4.059952
2018-12-13,04:22:47.526,0.17651367,7.884552,3.2950287000000005
2018-12-13,04:22:47.545,-0.47071838,8.590622,3.0989075
2018-12-13,04:22:47.566,-1.0002746999999999,9.002502,3.1969604
2018-12-13,04:22:47.591,-1.5102233999999999,9.100571,3.4323273000000003
2018-12-13,04:22:47.608,-1.3533173,8.924057000000001,3.510788
2018-12-13,04:22:47.627,-1.039505,8.904434,3.2165833
2018-12-13,04:22:47.647,-0.58839417,8.669083,3.0596771
2018-12-13,04:22:47.681,-0.17651367,8.453339,2.9223784999999998
2018-12-13,04:22:47.690,0.019607543999999998,8.472946,2.6477966
2018-12-13,04:22:47.714,0.15690613,8.629852,2.2163086
2018-12-13,04:22:47.727,0.13729858,8.767151,2.0986176
2018-12-13,04:22:47.748,0.0,8.708298,2.0005493000000003
2018-12-13,04:22:47.771,-0.039230347,8.571014,1.9809418
2018-12-13,04:22:47.790,-0.09806824,8.472946,1.9417113999999998
2018-12-13,04:22:47.808,-0.19613647,8.394485000000001,1.9809418
2018-12-13,04:22:47.828,-0.31381226,8.669083,2.0005493000000003
2018-12-13,04:22:47.848,-0.41188050000000004,9.080963,2.1770782000000004
2018-12-13,04:22:47.872,-0.37265015,9.5516815,2.471283
2018-12-13,04:22:47.890,-0.19613647,10.042007,2.687027
2018-12-13,04:22:47.909,0.15690613,10.414658,2.8635406000000003
2018-12-13,04:22:47.930,0.5687866,10.316589,2.7654723999999997
2018-12-13,04:22:47.949,0.78453064,9.904724,2.1966857999999996
2018-12-13,04:22:47.972,0.39227295,9.688965,1.9613342
2018-12-13,04:22:47.989,-0.13729858,10.198914,2.1574554
2018-12-13,04:22:48.010,-0.21574402,11.042282,2.7654723999999997
2018-12-13,04:22:48.030,-0.19613647,11.669907,3.3538818
2018-12-13,04:22:48.050,-0.11767578,11.199188000000001,3.6284637
2018-12-13,04:22:48.086,0.50994873,10.198914,3.9618835
2018-12-13,04:22:48.090,1.255249,9.355545,4.6875763
2018-12-13,04:22:48.112,1.7259673999999998,9.002502,5.629013
2018-12-13,04:22:48.130,1.4121552,8.708298,6.511612
2018-12-13,04:22:48.151,0.43148804,8.178741,5.5113373
2018-12-13,04:22:48.172,0.09806824,8.100296,4.2364654999999996
2018-12-13,04:22:48.191,0.09806824,8.100296,4.2364654999999996
2018-12-13,04:22:48.212,0.9218291999999999,8.747527999999999,2.471283
2018-12-13,04:22:48.231,1.3925476,8.649460000000001,1.9417113999999998
2018-12-13,04:22:48.271,1.863266,8.31604,2.020172
2018-12-13,04:22:48.273,1.8828735,8.2964325,1.863266
2018-12-13,04:22:48.295,1.8828735,8.2964325,1.863266
2018-12-13,04:22:48.312,1.2748718,8.5121765,2.0594025
2018-12-13,04:22:48.338,0.94143677,8.825989,2.5497284
2018-12-13,04:22:48.359,0.7453003,9.100571,3.1381226000000004
2018-12-13,04:22:48.373,0.94143677,9.237869,3.3538818
2018-12-13,04:22:48.393,0.94143677,9.237869,3.3538818
2018-12-13,04:22:48.411,0.7060852,9.041733,3.0596771
2018-12-13,04:22:48.432,0.2942047,8.963272,2.6085662999999997
2018-12-13,04:22:48.454,-0.19613647,8.806366,2.07901
2018-12-13,04:22:48.473,-0.21574402,8.708298,1.7651978
2018-12-13,04:22:48.494,-0.019607543999999998,8.629852,1.7259673999999998
2018-12-13,04:22:48.512,0.31381226,8.571014,1.6867371
2018-12-13,04:22:48.537,0.50994873,8.610244999999999,1.7651978
2018-12-13,04:22:48.555,0.5687866,8.904434,1.9613342
2018-12-13,04:22:48.573,0.5491791,9.473221,2.2555237
2018-12-13,04:22:48.594,0.43148804,9.845871,2.5301207999999997
2018-12-13,04:22:48.614,0.15690613,10.0224,2.7458649
2018-12-13,04:22:48.641,-0.07846069,10.081238,2.902771
2018-12-13,04:22:48.654,-0.019607543999999998,10.179306,2.961609
2018-12-13,04:22:48.674,0.05883789,10.689255000000001,3.0400543
2018-12-13,04:22:48.695,0.07846069,11.218811,3.0989075
2018-12-13,04:22:48.714,0.17651367,10.924605999999999,3.510788
2018-12-13,04:22:48.738,-0.3530426,10.198914,4.040344
2018-12-13,04:22:48.756,-0.9218291999999999,9.198639,4.6679688
2018-12-13,04:22:48.774,-1.470993,8.590622,5.393661499999999
2018-12-13,04:22:48.795,-0.39227295,8.551392,5.785919
2018-12-13,04:22:48.815,0.7649231,8.629852,5.5505676
2018-12-13,04:22:48.850,1.2944794,8.374878,4.707199
2018-12-13,04:22:48.855,1.0983428999999998,8.453339,3.6088410000000004
2018-12-13,04:22:48.877,0.37265015,8.884827,3.1381226000000004
2018-12-13,04:22:48.896,-0.19613647,9.237869,3.0792847
2018-12-13,04:22:48.921,-0.9218291999999999,9.296707000000001,3.2558136
2018-12-13,04:22:48.941,-1.0787354,8.943665,3.4519347999999996
2018-12-13,04:22:48.956,-0.7649231,8.571014,3.393097
2018-12-13,04:22:48.977,-0.45111084,8.257202000000001,3.177353
2018-12-13,04:22:48.998,-0.13729858,7.9826202,2.9223784999999998
2018-12-13,04:22:49.027,0.21574402,7.864928999999999,2.569336
2018-12-13,04:22:49.041,0.37265015,7.8453217,2.07901
2018-12-13,04:22:49.055,0.43148804,8.041458,1.7063598999999998
2018-12-13,04:22:49.093,0.21574402,8.394485000000001,1.6671295
2018-12-13,04:22:49.104,-0.13729858,8.590622,1.8240356
2018-12-13,04:22:49.122,-0.5295563,8.590622,1.9417113999999998
2018-12-13,04:22:49.136,-0.7453003,8.669083,2.07901
2018-12-13,04:22:49.157,-0.86299133,8.904434,2.294754
2018-12-13,04:22:49.180,-0.9610443000000001,9.414383,2.6085662999999997
2018-12-13,04:22:49.198,-0.8041381999999999,9.98317,2.8439330000000003
2018-12-13,04:22:49.219,-0.5491791,10.316589,3.118515
2018-12-13,04:22:49.237,-0.19613647,10.277374,3.118515
2018-12-13,04:22:49.258,0.23536682,9.885100999999999,2.8439330000000003
2018-12-13,04:22:49.278,0.31381226,9.963562,2.6674042
2018-12-13,04:22:49.300,0.21574402,10.708862,2.6477966
2018-12-13,04:22:49.322,0.2942047,11.571854,2.9223784999999998
2018-12-13,04:22:49.338,0.41188050000000004,11.434555,3.3538818
2018-12-13,04:22:49.358,0.5295563,10.434280000000001,3.550003
2018-12-13,04:22:49.377,0.72569275,9.492844,3.9030457000000003
2018-12-13,04:22:49.399,1.1964111000000002,9.041733,4.7268066
2018-12-13,04:22:49.420,1.3337097,9.002502,5.472107
2018-12-13,04:22:49.439,1.1179656999999998,8.669083,5.648636
2018-12-13,04:22:49.461,0.9218291999999999,8.5121765,4.9033203
2018-12-13,04:22:49.486,0.9022064000000001,8.414108,3.6873016000000005
2018-12-13,04:22:49.506,1.1768036,8.943665,2.8439330000000003
2018-12-13,04:22:49.526,1.431778,9.3359375,2.2359161
2018-12-13,04:22:49.540,1.6867371,9.06134,1.863266
2018-12-13,04:22:49.560,2.020172,8.649460000000001,2.020172
2018-12-13,04:22:49.580,1.5886841,8.531784,1.9024963
2018-12-13,04:22:49.604,1.2944794,8.590622,2.0005493000000003
2018-12-13,04:22:49.621,0.9610443000000001,8.649460000000001,2.4908905
2018-12-13,04:22:49.641,0.7453003,8.727921,2.687027
2018-12-13,04:22:49.661,0.8041381999999999,8.786758,2.628189
2018-12-13,04:22:49.686,0.7060852,9.002502,2.4124298
2018-12-13,04:22:49.702,0.7060852,9.002502,2.4124298
2018-12-13,04:22:49.721,0.43148804,8.884827,2.0005493000000003
2018-12-13,04:22:49.741,0.47071838,8.786758,1.9221039
2018-12-13,04:22:49.761,0.6864624,8.68869,1.9024963
2018-12-13,04:22:49.781,0.8041381999999999,8.590622,1.8044281000000002
2018-12-13,04:22:49.804,0.8041381999999999,8.767151,1.6867371
2018-12-13,04:22:49.821,0.8041381999999999,8.767151,1.6867371
2018-12-13,04:22:49.842,0.7453003,9.100571,1.7259673999999998
2018-12-13,04:22:49.862,0.72569275,9.630127,2.020172
2018-12-13,04:22:49.888,0.6864624,10.061630000000001,2.1770782000000004
2018-12-13,04:22:49.903,0.49032593,10.159683,2.4516602
2018-12-13,04:22:49.921,0.15690613,10.296982,2.5497284
2018-12-13,04:22:49.942,0.17651367,10.591187,2.8439330000000003
2018-12-13,04:22:49.962,0.43148804,11.5130005,3.2165833
2018-12-13,04:22:49.982,0.3334198,11.846436,3.4715576
2018-12-13,04:22:50.003,0.07846069,11.199188000000001,3.765747
2018-12-13,04:22:50.021,-0.25497437,10.198914,4.393371599999999
2018-12-13,04:22:50.043,-0.7649231,9.414383,5.2563629999999995
2018-12-13,04:22:50.063,-0.8237610000000001,8.982895,6.4331665000000005
2018-12-13,04:22:50.086,0.43148804,8.453339,6.2174225
2018-12-13,04:22:50.104,1.0983428999999998,7.9041595000000004,5.354431
2018-12-13,04:22:50.123,1.0983428999999998,7.551117,3.9815062999999995
2018-12-13,04:22:50.143,0.58839417,8.080672999999999,3.1577453999999996
2018-12-13,04:22:50.168,-0.13729858,8.747527999999999,2.8831482000000004
2018-12-13,04:22:50.185,-0.5687866,8.963272,2.7654723999999997
2018-12-13,04:22:50.205,-1.1375732,8.825989,3.0792847
2018-12-13,04:22:50.224,-1.0787354,8.590622,3.177353
2018-12-13,04:22:50.243,-0.78453064,8.414108,2.902771
2018-12-13,04:22:50.265,-0.37265015,8.198364,2.8635406000000003
2018-12-13,04:22:50.287,-0.09806824,7.943389999999999,2.628189
2018-12-13,04:22:50.306,0.09806824,8.041458,2.4124298
2018-12-13,04:22:50.325,0.17651367,8.374878,2.07901
2018-12-13,04:22:50.345,0.11767578,8.610244999999999,1.9024963
2018-12-13,04:22:50.369,-0.09806824,8.571014,1.7848053
2018-12-13,04:22:50.387,-0.21574402,8.374878,1.7259673999999998
2018-12-13,04:22:50.406,-0.3334198,8.335647999999999,1.7455901999999999
2018-12-13,04:22:50.426,-0.43148804,8.571014,2.0005493000000003
2018-12-13,04:22:50.446,-0.5687866,8.904434,2.07901
2018-12-13,04:22:50.470,-0.7060852,9.4339905,2.2359161
2018-12-13,04:22:50.487,-0.6276245,9.963562,2.3732147
2018-12-13,04:22:50.508,-0.25497437,10.316589,2.3928222999999997
2018-12-13,04:22:50.527,0.15690613,10.336212,2.510498
2018-12-13,04:22:50.547,0.25497437,10.296982,2.6477966
2018-12-13,04:22:50.570,-0.05883789,10.944214,3.0400543
2018-12-13,04:22:50.592,-0.41188050000000004,12.121017,3.4519347999999996
2018-12-13,04:22:50.608,-0.23536682,12.022949,3.765747
2018-12-13,04:22:50.628,0.23536682,10.846161,3.8442078
2018-12-13,04:22:50.648,0.9806671,9.747803,3.9618835
2018-12-13,04:22:50.670,1.9613342,8.786758,4.550293
2018-12-13,04:22:50.691,1.9221039,8.433716,5.5505676
2018-12-13,04:22:50.709,1.039505,8.119904,5.275970500000001
2018-12-13,04:22:50.728,0.2942047,8.139526,4.3345337
2018-12-13,04:22:50.749,0.09806824,8.669083,3.510788
2018-12-13,04:22:50.770,0.27458190000000005,9.394775,3.0989075
2018-12-13,04:22:50.788,0.6276245,9.473221,2.471283
2018-12-13,04:22:50.809,1.3533173,8.982895,2.4516602
2018-12-13,04:22:50.830,1.6475220000000002,8.551392,2.2751465
2018-12-13,04:22:50.851,1.3140869,8.237579,2.1182404
2018-12-13,04:22:50.869,0.86299133,8.178741,2.1770782000000004
2018-12-13,04:22:50.889,0.5687866,8.237579,2.471283
2018-12-13,04:22:50.910,0.6276245,8.414108,2.5889587000000005
2018-12-13,04:22:50.929,0.78453064,8.68869,2.5889587000000005
2018-12-13,04:22:51.045,0.8041381999999999,8.982895,2.3928222999999997
2018-12-13,04:22:51.046,0.86299133,9.06134,2.2359161
2018-12-13,04:22:51.047,0.8237610000000001,8.963272,2.2163086
2018-12-13,04:22:51.048,0.7649231,8.786758,2.137848
2018-12-13,04:22:51.049,0.6276245,8.68869,1.9613342
2018-12-13,04:22:51.050,0.5295563,8.806366,1.7651978
2018-12-13,04:22:51.071,0.5491791,9.198639,1.6867371
2018-12-13,04:22:51.090,0.5687866,9.64975,1.7063598999999998
2018-12-13,04:22:51.111,0.50994873,10.061630000000001,1.9417113999999998
2018-12-13,04:22:51.136,0.78453064,10.257750999999999,2.1574554
2018-12-13,04:22:51.152,0.7453003,10.296982,2.3339844
2018-12-13,04:22:51.172,0.50994873,10.35582,2.5889587000000005
2018-12-13,04:22:51.191,0.2942047,10.72847,2.8635406000000003
2018-12-13,04:22:51.210,0.27458190000000005,11.552230999999999,3.2165833
2018-12-13,04:22:51.232,0.23536682,11.885666,3.4715576
2018-12-13,04:22:51.252,0.07846069,11.179580999999999,3.6088410000000004
2018-12-13,04:22:51.272,-0.11767578,10.002777,3.6873016000000005
2018-12-13,04:22:51.292,-0.47071838,8.767151,4.040344
2018-12-13,04:22:51.313,-0.60801697,7.9826202,4.922943
2018-12-13,04:22:51.336,0.07846069,8.159134,5.746704
2018-12-13,04:22:51.353,1.0787354,8.5121765,5.7074738
2018-12-13,04:22:51.375,1.0787354,8.5121765,5.7074738
2018-12-13,04:22:51.392,1.5886841,8.257202000000001,5.1190643
2018-12-13,04:22:51.414,0.9218291999999999,8.178741,4.1972504
2018-12-13,04:22:51.432,0.07846069,8.492554,3.5696258999999997
2018-12-13,04:22:51.453,-0.45111084,9.080963,3.2754211
2018-12-13,04:22:51.473,-1.1768036,9.316315,3.177353
2018-12-13,04:22:51.493,-1.1375732,9.120178,3.2754211
2018-12-13,04:22:51.514,-0.7649231,8.786758,3.2950287000000005
2018-12-13,04:22:51.536,-0.3334198,8.571014,3.0400543
2018-12-13,04:22:51.554,-0.039230347,8.2964325,2.7458649
2018-12-13,04:22:51.574,0.3530426,8.041458,2.3928222999999997
2018-12-13,04:22:51.594,0.5491791,7.9826202,1.9613342
2018-12-13,04:22:51.615,0.50994873,8.100296,1.6475220000000002
2018-12-13,04:22:51.636,0.27458190000000005,8.080672999999999,1.6278992
2018-12-13,04:22:51.656,0.019607543999999998,8.061066,1.7259673999999998
2018-12-13,04:22:51.676,-0.25497437,7.943389999999999,1.6867371
2018-12-13,04:22:51.695,-0.45111084,7.9826202,1.7651978
2018-12-13,04:22:51.716,-0.66685486,8.31604,1.9613342
2018-12-13,04:22:51.737,-0.7453003,8.865219,2.1966857999999996
2018-12-13,04:22:51.757,-0.6276245,9.375153,2.353592
2018-12-13,04:22:51.775,-0.37265015,9.414383,2.1966857999999996
2018-12-13,04:22:51.795,-0.21574402,9.4339905,2.0986176
2018-12-13,04:22:51.816,-0.2942047,10.453888000000001,2.6085662999999997
2018-12-13,04:22:51.836,-0.11767578,12.532898,3.9815062999999995
2018-12-13,04:22:51.854,0.039230347,13.395889000000002,5.3348236
2018-12-13,04:22:51.878,0.47071838,12.905548,6.0408935999999995
2018-12-13,04:22:51.896,1.7259673999999998,11.591461,5.8447569999999995
2018-12-13,04:22:51.918,2.628189,10.218536,5.099457
2018-12-13,04:22:51.937,2.902771,8.982895,5.0013885
2018-12-13,04:22:51.956,2.2359161,8.5121765,5.1779175
2018-12-13,04:22:51.976,1.6082916,8.257202000000001,4.6875763
2018-12-13,04:22:51.997,1.7848053,8.041458,3.9618835
2018-12-13,04:22:52.021,1.8828735,8.159134,3.3146515
2018-12-13,04:22:52.037,2.1182404,8.217972,2.628189
2018-12-13,04:22:52.058,2.7458649,7.8060913,2.020172
2018-12-13,04:22:52.078,2.6085662999999997,7.727646000000001,2.07901
2018-12-13,04:22:52.098,2.2555237,7.727646000000001,2.0986176
2018-12-13,04:22:52.121,1.7455901999999999,7.943389999999999,2.3732147
2018-12-13,04:22:52.139,1.1179656999999998,8.257202000000001,2.902771
2018-12-13,04:22:52.159,0.84336853,8.414108,3.1969604
2018-12-13,04:22:52.178,0.8825989,8.551392,3.2361908
2018-12-13,04:22:52.199,0.9806671,8.708298,2.9223784999999998
2018-12-13,04:22:52.219,1.1571808000000001,8.845596,2.7262419999999996
2018-12-13,04:22:52.239,1.255249,8.924057000000001,2.4908905
2018-12-13,04:22:52.259,1.255249,9.022125,2.471283
2018-12-13,04:22:52.278,1.2944794,8.884827,2.3928222999999997
2018-12-13,04:22:52.298,1.3729248,8.806366,2.2163086
2018-12-13,04:22:52.321,1.4906158,8.571014,2.020172
2018-12-13,04:22:52.339,1.5494537,8.414108,1.9221039
2018-12-13,04:22:52.360,1.5298308999999999,8.472946,1.7651978
2018-12-13,04:22:52.380,1.3533173,8.727921,1.7455901999999999
2018-12-13,04:22:52.400,1.0198975000000001,9.080963,1.9613342
2018-12-13,04:22:52.421,0.6864624,9.590897,2.3143768
2018-12-13,04:22:52.501,0.43148804,10.0224,2.628189
2018-12-13,04:22:52.503,0.13729858,10.238144,2.5889587000000005
2018-12-13,04:22:52.505,0.15690613,10.120467999999999,2.5301207999999997
2018-12-13,04:22:52.506,0.41188050000000004,10.238144,2.5497284
2018-12-13,04:22:52.522,0.6276245,11.061905,2.7458649
2018-12-13,04:22:52.541,0.5687866,12.06218,3.0008392
2018-12-13,04:22:52.561,0.41188050000000004,11.571854,3.2950287000000005
2018-12-13,04:22:52.581,0.21574402,10.650024,3.8442078
2018-12-13,04:22:52.604,-0.23536682,9.924332000000001,5.1582947
2018-12-13,04:22:52.621,-0.9022064000000001,9.394775,6.629303
2018-12-13,04:22:52.642,-0.50994873,8.669083,7.001953
2018-12-13,04:22:52.662,0.3530426,7.7472534,5.805542
2018-12-13,04:22:52.687,0.78453064,6.903885000000001,4.53067
2018-12-13,04:22:52.704,0.6864624,7.276535000000001,3.393097
2018-12-13,04:22:52.722,0.09806824,8.021835000000001,2.961609
2018-12-13,04:22:52.742,-0.43148804,8.531784,2.6477966
2018-12-13,04:22:52.762,-1.2160187,8.629852,2.902771
2018-12-13,04:22:52.782,-1.3729248,8.551392,3.2361908
2018-12-13,04:22:52.803,-0.86299133,8.472946,3.1577453999999996
2018-12-13,04:22:52.823,-0.50994873,8.414108,3.0204467999999998
2018-12-13,04:22:52.843,-0.17651367,8.414108,2.9420013
2018-12-13,04:22:52.863,0.019607543999999998,8.492554,2.8439330000000003
2018-12-13,04:22:52.887,0.019607543999999998,8.492554,2.8439330000000003
2018-12-13,04:22:52.903,0.15690613,8.649460000000001,2.628189
2018-12-13,04:22:52.924,0.3334198,8.806366,2.510498
2018-12-13,04:22:52.943,0.17651367,8.904434,2.5497284
2018-12-13,04:22:52.964,0.13729858,8.884827,2.471283
2018-12-13,04:22:52.987,-0.039230347,8.806366,2.3339844
2018-12-13,04:22:53.004,-0.25497437,8.727921,2.2359161
2018-12-13,04:22:53.025,-0.47071838,8.590622,2.137848
2018-12-13,04:22:53.043,-0.60801697,8.649460000000001,2.0005493000000003
2018-12-13,04:22:53.066,-0.60801697,8.865219,1.8436432
2018-12-13,04:22:53.094,-0.49032593,9.257477,1.9613342
2018-12-13,04:22:53.107,-0.27458190000000005,9.708588,2.0986176
2018-12-13,04:22:53.127,0.0,9.943939,2.1770782000000004
2018-12-13,04:22:53.145,0.05883789,9.885100999999999,2.020172
2018-12-13,04:22:53.166,-0.11767578,9.924332000000001,2.1966857999999996
2018-12-13,04:22:53.187,-0.25497437,10.72847,2.628189
2018-12-13,04:22:53.207,-0.15690613,11.748367,3.0989075
2018-12-13,04:22:53.227,0.019607543999999998,12.003342,3.6676940000000005
2018-12-13,04:22:53.246,0.50994873,11.120743,3.883438
2018-12-13,04:22:53.265,1.2748718,10.0224,4.3737639999999995
2018-12-13,04:22:53.289,1.5298308999999999,9.237869,4.864105
2018-12-13,04:22:53.306,1.1179656999999998,9.139801,5.432876599999999
2018-12-13,04:22:53.327,0.31381226,9.080963,5.5505676
2018-12-13,04:22:53.346,-0.5687866,8.727921,4.9033203
2018-12-13,04:22:53.365,-0.09806824,8.551392,4.0795593
2018-12-13,04:22:53.387,0.45111084,8.865219,3.4519347999999996
2018-12-13,04:22:53.407,0.9218291999999999,9.296707000000001,2.7458649
2018-12-13,04:22:53.427,1.4906158,9.120178,2.5497284
2018-12-13,04:22:53.447,1.9417113999999998,8.845596,2.5301207999999997
2018-12-13,04:22:53.470,2.1182404,8.551392,2.2555237
2018-12-13,04:22:53.487,1.6671295,8.335647999999999,2.4124298
2018-12-13,04:22:53.507,1.0983428999999998,8.159134,2.6085662999999997
2018-12-13,04:22:53.528,0.64723206,8.119904,2.6085662999999997
2018-12-13,04:22:53.553,0.19613647,8.31604,2.5497284
2018-12-13,04:22:53.569,-0.019607543999999998,8.492554,2.2751465
2018-12-13,04:22:53.587,-0.13729858,8.669083,2.137848
2018-12-13,04:22:53.608,-0.039230347,8.629852,2.2359161
2018-12-13,04:22:53.629,0.09806824,8.708298,2.3339844
2018-12-13,04:22:53.649,0.13729858,8.610244999999999,2.353592
2018-12-13,04:22:53.669,0.11767578,8.551392,2.1966857999999996
2018-12-13,04:22:53.688,0.15690613,8.551392,1.9221039
2018-12-13,04:22:53.710,0.23536682,8.963272,1.863266
2018-12-13,04:22:53.730,0.23536682,9.532059,2.137848
2018-12-13,04:22:53.754,0.2942047,10.140075999999999,2.510498
2018-12-13,04:22:53.771,0.23536682,10.316589,2.7066345000000003
2018-12-13,04:22:53.793,-0.15690613,10.316589,2.8243103
2018-12-13,04:22:53.810,-0.13729858,10.4734955,3.0008392
2018-12-13,04:22:53.831,0.09806824,11.277649,3.1577453999999996
2018-12-13,04:22:53.855,0.31381226,11.728760000000001,3.5696258999999997
2018-12-13,04:22:53.872,0.25497437,11.003067,4.001114
2018-12-13,04:22:53.891,0.13729858,9.943939,4.589508
2018-12-13,04:22:53.909,-0.17651367,9.277084,5.629013
2018-12-13,04:22:53.937,0.23536682,9.159409,6.7077484
2018-12-13,04:22:53.955,1.039505,8.590622,6.138962
2018-12-13,04:22:53.971,1.4121552,7.7668610000000005,5.1779175
2018-12-13,04:22:53.991,1.1179656999999998,7.5315094,4.040344
2018-12-13,04:22:54.011,0.43148804,8.041458,3.334259
2018-12-13,04:22:54.032,-0.19613647,8.472946,2.8439330000000003
2018-12-13,04:22:54.052,-0.8237610000000001,8.767151,2.6477966
2018-12-13,04:22:54.071,-1.6278992,8.845596,2.9223784999999998
2018-12-13,04:22:54.092,-1.7848053,8.786758,3.1381226000000004
2018-12-13,04:22:54.112,-1.3729248,8.610244999999999,3.0792847
2018-12-13,04:22:54.132,-0.9022064000000001,8.433716,3.1381226000000004
2018-12-13,04:22:54.153,-0.47071838,8.374878,2.961609
2018-12-13,04:22:54.172,-0.17651367,8.453339,2.5301207999999997
2018-12-13,04:22:54.192,0.039230347,8.610244999999999,2.1182404
2018-12-13,04:22:54.212,0.13729858,8.747527999999999,1.863266
2018-12-13,04:22:54.231,0.0,8.825989,1.9024963
2018-12-13,04:22:54.254,-0.09806824,8.68869,2.07901
2018-12-13,04:22:54.273,-0.37265015,8.649460000000001,2.2751465
2018-12-13,04:22:54.293,-0.60801697,8.727921,2.1966857999999996
2018-12-13,04:22:54.313,-0.84336853,8.884827,2.0594025
2018-12-13,04:22:54.334,-0.8825989,9.218246,2.1182404
2018-12-13,04:22:54.358,-0.60801697,9.865494,2.3732147
2018-12-13,04:22:54.378,-0.19613647,10.551956,2.7066345000000003
2018-12-13,04:22:54.394,-0.19613647,10.551956,2.7066345000000003
2018-12-13,04:22:54.414,0.31381226,10.610794,2.7458649
2018-12-13,04:22:54.438,0.25497437,10.238144,2.510498
2018-12-13,04:22:54.454,-0.17651367,10.591187,2.2359161
2018-12-13,04:22:54.478,-0.47071838,11.199188000000001,2.353592
2018-12-13,04:22:54.495,-0.2942047,11.689528999999999,2.8635406000000003
2018-12-13,04:22:54.515,0.07846069,11.591461,3.4323273000000003
2018-12-13,04:22:54.537,0.5687866,10.924605999999999,3.8638152999999997
2018-12-13,04:22:54.554,1.1964111000000002,9.787033000000001,4.295318599999999
2018-12-13,04:22:54.576,1.5886841,8.68869,4.4718323
2018-12-13,04:22:54.595,1.3140869,8.198364,4.6875763
2018-12-13,04:22:54.616,0.60801697,8.198364,5.040619
2018-12-13,04:22:54.639,-0.37265015,8.100296,4.609131
2018-12-13,04:22:54.656,-0.86299133,8.119904,4.53067
2018-12-13,04:22:54.677,-0.39227295,8.472946,4.0207214
2018-12-13,04:22:54.696,0.13729858,8.767151,3.4911652
2018-12-13,04:22:54.717,0.8041381999999999,8.825989,3.0596771
2018-12-13,04:22:54.737,1.2944794,8.806366,2.8439330000000003
2018-12-13,04:22:54.756,1.431778,8.669083,2.5497284
2018-12-13,04:22:54.777,1.1179656999999998,8.571014,2.5301207999999997
2018-12-13,04:22:54.798,0.9022064000000001,8.374878,2.7850952
2018-12-13,04:22:54.825,0.6864624,8.257202000000001,2.8047028
2018-12-13,04:22:54.842,0.47071838,8.31604,2.7262419999999996
2018-12-13,04:22:54.859,0.19613647,8.5121765,2.510498
2018-12-13,04:22:54.878,0.019607543999999998,8.610244999999999,2.4516602
2018-12-13,04:22:54.898,0.0,8.747527999999999,2.4124298
2018-12-13,04:22:54.927,0.11767578,8.806366,2.3339844
2018-12-13,04:22:54.940,0.19613647,8.767151,2.1966857999999996
2018-12-13,04:22:54.958,0.25497437,8.767151,2.0005493000000003
2018-12-13,04:22:54.978,0.25497437,8.649460000000001,1.8436432
2018-12-13,04:22:54.999,0.3530426,8.727921,1.7455901999999999
2018-12-13,04:22:55.022,0.47071838,8.943665,1.8044281000000002
2018-12-13,04:22:55.039,0.5687866,9.277084,1.8044281000000002
2018-12-13,04:22:55.060,0.3334198,9.747803,2.0986176
2018-12-13,04:22:55.079,-0.039230347,10.179306,2.3339844
2018-12-13,04:22:55.099,-0.5295563,10.277374,2.4908905
2018-12-13,04:22:55.123,-1.039505,10.120467999999999,2.4516602
2018-12-13,04:22:55.141,-0.78453064,10.140075999999999,2.3339844
2018-12-13,04:22:55.160,-0.3334198,10.39505,2.3339844
2018-12-13,04:22:55.180,0.13729858,11.042282,2.5301207999999997
2018-12-13,04:22:55.200,0.6276245,10.865768,3.0596771
2018-12-13,04:22:55.222,0.3530426,10.336212,3.8638152999999997
2018-12-13,04:22:55.242,-0.11767578,10.277374,5.432876599999999
2018-12-13,04:22:55.261,-0.21574402,10.493117999999999,7.2961426
2018-12-13,04:22:55.280,0.9806671,9.708588,7.2961426
2018-12-13,04:22:55.302,1.470993,8.472946,5.864380000000001
2018-12-13,04:22:55.322,1.6278992,8.061066,4.0795593
2018-12-13,04:22:55.343,1.2356415,8.394485000000001,2.7458649
2018-12-13,04:22:55.362,0.49032593,8.747527999999999,2.2555237
2018-12-13,04:22:55.381,0.019607543999999998,8.727921,2.2555237
2018-12-13,04:22:55.402,-0.60801697,8.571014,2.7262419999999996
2018-12-13,04:22:55.422,-0.50994873,8.472946,3.0008392
2018-12-13,04:22:55.442,-0.13729858,8.276810000000001,2.902771
2018-12-13,04:22:55.461,0.05883789,8.178741,2.7262419999999996
2018-12-13,04:22:55.492,0.19613647,8.139526,2.4516602
2018-12-13,04:22:55.508,0.27458190000000005,8.433716,2.137848
2018-12-13,04:22:55.525,0.25497437,8.708298,1.8828735
2018-12-13,04:22:55.544,0.19613647,8.904434,1.8044281000000002
2018-12-13,04:22:55.562,0.039230347,8.924057000000001,1.7063598999999998
2018-12-13,04:22:55.593,-0.039230347,8.571014,1.7063598999999998
2018-12-13,04:22:55.609,0.0,8.276810000000001,1.8044281000000002
2018-12-13,04:22:55.625,0.019607543999999998,8.237579,1.8044281000000002
2018-12-13,04:22:55.643,0.0,8.610244999999999,1.8044281000000002
2018-12-13,04:22:55.665,-0.039230347,9.316315,2.137848
2018-12-13,04:22:55.689,-0.15690613,10.042007,2.569336
2018-12-13,04:22:55.709,-0.039230347,10.120467999999999,2.7262419999999996
2018-12-13,04:22:55.726,0.15690613,9.806656,2.628189
2018-12-13,04:22:55.744,0.05883789,9.767425999999999,2.6085662999999997
2018-12-13,04:22:55.767,-0.13729858,10.512725999999999,2.569336
2018-12-13,04:22:55.791,-0.039230347,11.571854,2.7850952
2018-12-13,04:22:55.805,0.07846069,12.06218,3.177353
2018-12-13,04:22:55.824,0.13729858,11.611069,3.4911652
2018-12-13,04:22:55.845,0.5687866,10.610794,3.5696258999999997
2018-12-13,04:22:55.866,0.94143677,9.590897,4.040344
2018-12-13,04:22:55.894,1.1375732,9.041733,4.746414
2018-12-13,04:22:55.906,0.6864624,8.943665,5.138687
2018-12-13,04:22:55.925,0.6864624,8.943665,5.138687
2018-12-13,04:22:55.946,0.3334198,9.100571,5.472107
2018-12-13,04:22:55.965,0.07846069,8.845596,4.7856445
2018-12-13,04:22:55.986,0.45111084,8.747527999999999,4.099182
2018-12-13,04:22:56.006,0.8237610000000001,8.943665,3.2950287000000005
2018-12-13,04:22:56.026,1.1179656999999998,9.218246,2.7262419999999996
2018-12-13,04:22:56.046,1.5494537,8.884827,2.3339844
2018-12-13,04:22:56.065,1.8828735,8.629852,2.2163086
2018-12-13,04:22:56.090,1.8436432,8.590622,2.0397797
2018-12-13,04:22:56.108,1.431778,8.610244999999999,2.3339844
2018-12-13,04:22:56.126,0.9806671,8.551392,2.8439330000000003
2018-12-13,04:22:56.147,0.5687866,8.551392,3.0400543
2018-12-13,04:22:56.177,0.2942047,8.649460000000001,3.0792847
2018-12-13,04:22:56.192,0.15690613,8.825989,2.8439330000000003
2018-12-13,04:22:56.210,0.19613647,8.806366,2.6085662999999997
2018-12-13,04:22:56.227,0.25497437,8.786758,2.3732147
2018-12-13,04:22:56.248,0.41188050000000004,8.708298,2.2751465
2018-12-13,04:22:56.274,0.5491791,8.669083,2.0397797
2018-12-13,04:22:56.292,0.58839417,8.629852,1.8044281000000002
2018-12-13,04:22:56.309,0.7453003,8.610244999999999,1.5886841
2018-12-13,04:22:56.328,0.84336853,8.68869,1.5494537
2018-12-13,04:22:56.350,0.72569275,8.943665,1.5494537
2018-12-13,04:22:56.374,0.50994873,9.3359375,1.863266
2018-12-13,04:22:56.390,0.2942047,9.806656,2.2163086
2018-12-13,04:22:56.409,-0.07846069,10.179306,2.6477966
2018-12-13,04:22:56.428,-0.7453003,10.198914,2.9223784999999998
2018-12-13,04:22:56.449,-1.6278992,10.179306,2.902771
2018-12-13,04:22:56.480,-1.3729248,10.100845,2.7262419999999996
2018-12-13,04:22:56.492,-0.58839417,10.787308,2.7850952
2018-12-13,04:22:56.509,-0.039230347,11.650299,2.9420013
2018-12-13,04:22:56.529,0.17651367,11.238419,3.0792847
2018-12-13,04:22:56.550,-0.07846069,10.140075999999999,3.4911652
2018-12-13,04:22:56.576,-0.43148804,9.139801,4.314926
2018-12-13,04:22:56.590,-0.50994873,8.669083,5.7663116
2018-12-13,04:22:56.609,0.39227295,8.767151,6.3154755
2018-12-13,04:22:56.630,1.4513855,8.747527999999999,5.805542
2018-12-13,04:22:56.651,2.0397797,8.747527999999999,4.7856445
2018-12-13,04:22:56.671,1.5886841,9.139801,3.7069092000000006
2018-12-13,04:22:56.693,0.58839417,9.4339905,3.1969604
2018-12-13,04:22:56.709,-0.13729858,9.571289,3.1381226000000004
2018-12-13,04:22:56.731,-1.0983428999999998,9.4339905,3.177353
2018-12-13,04:22:56.755,-1.4121552,9.022125,3.2950287000000005
2018-12-13,04:22:56.775,-1.039505,8.669083,3.1381226000000004
2018-12-13,04:22:56.791,-0.72569275,8.335647999999999,3.0792847
2018-12-13,04:22:56.812,-0.41188050000000004,7.9041595000000004,3.0400543
2018-12-13,04:22:56.837,-0.17651367,7.8060913,2.9223784999999998
2018-12-13,04:22:56.854,-0.09806824,7.864928999999999,2.4516602
2018-12-13,04:22:56.872,-0.15690613,7.923767,2.2751465
2018-12-13,04:22:56.892,-0.23536682,8.021835000000001,2.1966857999999996
2018-12-13,04:22:56.912,-0.45111084,8.178741,2.2163086
2018-12-13,04:22:56.932,-0.5491791,8.159134,2.2163086
2018-12-13,04:22:56.955,-0.58839417,8.198364,2.3339844
2018-12-13,04:22:56.973,-0.5295563,8.433716,2.4908905
2018-12-13,04:22:56.992,-0.41188050000000004,8.825989,2.5889587000000005
2018-12-13,04:22:57.012,-0.37265015,9.277084,2.6085662999999997
2018-12-13,04:22:57.032,-0.17651367,9.747803,2.8047028
2018-12-13,04:22:57.055,-0.05883789,10.0224,2.8635406000000003
2018-12-13,04:22:57.073,0.2942047,9.904724,2.628189
2018-12-13,04:22:57.093,0.27458190000000005,9.767425999999999,2.4908905
2018-12-13,04:22:57.113,-0.15690613,10.257750999999999,2.7066345000000003
2018-12-13,04:22:57.139,-0.3334198,11.159972999999999,3.0400543
2018-12-13,04:22:57.158,-0.15690613,11.983719,3.4127197
2018-12-13,04:22:57.179,0.05883789,11.709137,3.6873016000000005
2018-12-13,04:22:57.194,0.05883789,10.748092999999999,4.0795593
2018-12-13,04:22:57.215,0.3334198,9.845871,4.746414
2018-12-13,04:22:57.238,0.60801697,9.179031,5.393661499999999
2018-12-13,04:22:57.257,0.5687866,8.571014,5.727081299999999
2018-12-13,04:22:57.277,0.11767578,7.864928999999999,5.1190643
2018-12-13,04:22:57.295,0.09806824,7.9041595000000004,4.0207214
2018-12-13,04:22:57.315,0.45111084,8.433716,3.1969604
2018-12-13,04:22:57.337,1.0002746999999999,9.06134,2.6674042
2018-12-13,04:22:57.357,1.0002746999999999,9.06134,2.6674042
2018-12-13,04:22:57.376,2.137848,9.139801,2.294754
2018-12-13,04:22:57.396,2.2359161,8.884827,2.3143768
2018-12-13,04:22:57.415,1.6475220000000002,8.610244999999999,2.1966857999999996
2018-12-13,04:22:57.441,1.0198975000000001,8.453339,2.510498
2018-12-13,04:22:57.456,1.0198975000000001,8.453339,2.510498
2018-12-13,04:22:57.478,0.5295563,8.551392,2.7262419999999996
2018-12-13,04:22:57.497,0.45111084,8.767151,2.8439330000000003
2018-12-13,04:22:57.521,0.49032593,8.924057000000001,2.7654723999999997
2018-12-13,04:22:57.541,0.37265015,8.963272,2.569336
2018-12-13,04:22:57.558,0.25497437,8.982895,2.4124298
2018-12-13,04:22:57.577,0.21574402,8.982895,2.294754
2018-12-13,04:22:57.598,0.19613647,8.767151,2.1182404
2018-12-13,04:22:57.626,0.2942047,8.610244999999999,2.07901
2018-12-13,04:22:57.641,0.43148804,8.472946,1.9809418
2018-12-13,04:22:57.658,0.6276245,8.492554,1.9613342
2018-12-13,04:22:57.678,0.66685486,8.884827,1.9809418
2018-12-13,04:22:57.698,0.64723206,9.473221,2.137848
2018-12-13,04:22:57.724,0.6276245,10.0224,2.5301207999999997
2018-12-13,04:22:57.742,0.45111084,10.39505,2.7458649
2018-12-13,04:22:57.761,-0.11767578,10.434280000000001,3.0792847
2018-12-13,04:22:57.778,-0.45111084,10.316589,3.2361908
2018-12-13,04:22:57.799,-0.11767578,10.218536,3.1381226000000004
2018-12-13,04:22:57.823,0.13729858,10.7677,3.1381226000000004
2018-12-13,04:22:57.842,0.23536682,11.5130005,3.1969604
2018-12-13,04:22:57.859,0.2942047,11.277649,3.2754211
2018-12-13,04:22:57.879,0.11767578,10.414658,3.8049774
2018-12-13,04:22:57.899,-0.15690613,9.355545,4.609131
2018-12-13,04:22:57.923,-0.5687866,8.217972,5.393661499999999
2018-12-13,04:22:57.941,-0.21574402,7.5118865999999995,5.727081299999999
2018-12-13,04:22:57.961,0.8041381999999999,7.1980743,5.236755400000001
2018-12-13,04:22:57.980,1.2944794,7.708023,4.550293
2018-12-13,04:22:57.999,1.2748718,8.394485000000001,3.765747
2018-12-13,04:22:58.021,0.64723206,8.708298,3.4715576
2018-12-13,04:22:58.042,-0.09806824,9.002502,3.4519347999999996
2018-12-13,04:22:58.061,-0.66685486,9.296707000000001,3.2950287000000005
2018-12-13,04:22:58.080,-0.9610443000000001,9.316315,3.4715576
2018-12-13,04:22:58.107,-0.6864624,9.041733,3.0400543
2018-12-13,04:22:58.122,-0.39227295,8.806366,2.902771
2018-12-13,04:22:58.141,-0.15690613,8.708298,2.961609
2018-12-13,04:22:58.161,0.0,8.68869,2.9812164
2018-12-13,04:22:58.180,0.11767578,8.68869,2.8635406000000003
2018-12-13,04:22:58.201,0.25497437,8.727921,2.4908905
2018-12-13,04:22:58.221,0.2942047,8.68869,2.2555237
2018-12-13,04:22:58.242,0.21574402,8.669083,2.0986176
2018-12-13,04:22:58.262,0.15690613,8.767151,2.0005493000000003
2018-12-13,04:22:58.282,0.09806824,8.786758,1.9221039
2018-12-13,04:22:58.306,0.019607543999999998,8.747527999999999,1.9221039
2018-12-13,04:22:58.327,-0.15690613,8.767151,2.0005493000000003
2018-12-13,04:22:58.342,-0.39227295,8.904434,2.0986176
2018-12-13,04:22:58.364,-0.58839417,9.198639,2.294754
2018-12-13,04:22:58.383,-0.66685486,9.590897,2.6477966
2018-12-13,04:22:58.402,-0.49032593,9.98317,2.9223784999999998
2018-12-13,04:22:58.429,-0.07846069,10.061630000000001,2.902771
2018-12-13,04:22:58.443,0.27458190000000005,9.963562,2.5889587000000005
2018-12-13,04:22:58.464,0.17651367,10.35582,2.6085662999999997
2018-12-13,04:22:58.491,0.11767578,11.081512,2.7654723999999997
2018-12-13,04:22:58.514,0.2942047,11.336487,3.1381226000000004
2018-12-13,04:22:58.523,0.66685486,10.924605999999999,3.3734894
2018-12-13,04:22:58.542,1.0787354,10.140075999999999,3.510788
2018-12-13,04:22:58.565,1.5886841,9.3359375,4.0795593
2018-12-13,04:22:58.590,1.863266,8.649460000000001,4.824875
2018-12-13,04:22:58.608,1.6671295,8.414108,5.5505676
2018-12-13,04:22:58.624,0.9022064000000001,8.276810000000001,5.099457
2018-12-13,04:22:58.644,0.5295563,8.453339,4.275696
2018-12-13,04:22:58.665,0.9022064000000001,8.982895,3.5696258999999997
2018-12-13,04:22:58.689,1.039505,9.806656,3.118515
2018-12-13,04:22:58.706,1.863266,9.924332000000001,2.8439330000000003
2018-12-13,04:22:58.724,2.8635406000000003,9.375153,2.6674042
2018-12-13,04:22:58.745,2.5497284,8.924057000000001,2.2751465
2018-12-13,04:22:58.766,1.9417113999999998,8.5121765,2.0594025
2018-12-13,04:22:58.789,1.2356415,8.139526,2.1574554
2018-12-13,04:22:58.805,0.6276245,7.9826202,2.2359161
2018-12-13,04:22:58.826,0.27458190000000005,8.178741,2.353592
2018-12-13,04:22:58.846,0.2942047,8.453339,2.1770782000000004
2018-12-13,04:22:58.871,0.49032593,8.767151,2.1770782000000004
2018-12-13,04:22:58.890,0.7453003,8.982895,2.137848
2018-12-13,04:22:58.907,0.9022064000000001,9.022125,2.2555237
2018-12-13,04:22:58.926,1.0591125,8.825989,2.2359161
2018-12-13,04:22:58.946,1.0591125,8.669083,2.1770782000000004
2018-12-13,04:22:58.968,0.9218291999999999,8.590622,1.8828735
2018-12-13,04:22:58.992,0.9218291999999999,8.590622,1.5690613000000002
2018-12-13,04:22:59.008,0.58839417,8.806366,1.7259673999999998
2018-12-13,04:22:59.028,0.58839417,8.806366,1.7259673999999998
2018-12-13,04:22:59.048,0.49032593,9.394775,1.8828735
2018-12-13,04:22:59.071,0.45111084,10.120467999999999,2.0986176
2018-12-13,04:22:59.089,0.3334198,10.453888000000001,2.353592
2018-12-13,04:22:59.109,0.019607543999999998,10.4734955,2.5497284
2018-12-13,04:22:59.128,-0.21574402,10.493117999999999,2.8243103
2018-12-13,04:22:59.147,-0.039230347,11.003067,3.3146515
2018-12-13,04:22:59.180,0.37265015,11.101135000000001,3.6676940000000005
2018-12-13,04:22:59.186,0.27458190000000005,10.434280000000001,3.883438
2018-12-13,04:22:59.209,-0.11767578,9.806656,4.4718323
2018-12-13,04:22:59.229,-0.60801697,9.806656,5.570175
2018-12-13,04:22:59.248,-0.43148804,10.100845,7.119629
2018-12-13,04:22:59.271,0.7453003,9.963562,6.825424000000001
2018-12-13,04:22:59.290,1.431778,9.06134,5.785919
2018-12-13,04:22:59.309,1.7455901999999999,8.080672999999999,4.49144
2018-12-13,04:22:59.330,1.2748718,8.2964325,3.1969604
2018-12-13,04:22:59.349,0.5295563,8.551392,2.7262419999999996
2018-12-13,04:22:59.371,0.0,8.629852,2.6085662999999997
2018-12-13,04:22:59.393,-0.6276245,8.492554,2.7850952
2018-12-13,04:22:59.409,-1.3925476,8.217972,3.4715576
2018-12-13,04:22:59.430,-1.431778,8.041458,3.3538818
2018-12-13,04:22:59.455,-1.0787354,7.9041595000000004,3.2165833
2018-12-13,04:22:59.471,-0.7453003,7.884552,2.9223784999999998
2018-12-13,04:22:59.490,-0.37265015,8.080672999999999,2.6085662999999997
2018-12-13,04:22:59.510,-0.19613647,8.414108,2.2751465
2018-12-13,04:22:59.531,-0.019607543999999998,8.68869,1.9809418
2018-12-13,04:22:59.554,-0.09806824,8.806366,1.8828735
2018-12-13,04:22:59.572,-0.25497437,8.708298,1.8436432
2018-12-13,04:22:59.592,-0.3530426,8.531784,2.07901
2018-12-13,04:22:59.611,-0.50994873,8.531784,2.3732147
2018-12-13,04:22:59.631,-0.7649231,8.708298,2.569336
2018-12-13,04:22:59.669,-1.039505,9.159409,2.7066345000000003
2018-12-13,04:22:59.672,-1.2356415,9.728195,2.902771
2018-12-13,04:22:59.692,-1.0787354,10.140075999999999,3.1381226000000004
2018-12-13,04:22:59.712,-0.6276245,10.218536,3.1577453999999996
2018-12-13,04:22:59.731,-0.27458190000000005,10.002777,2.8635406000000003
2018-12-13,04:22:59.754,0.0,9.904724,2.569336
2018-12-13,04:22:59.773,0.17651367,10.414658,2.4908905
2018-12-13,04:22:59.792,0.13729858,11.336487,2.628189
2018-12-13,04:22:59.812,0.17651367,11.728760000000001,2.8047028
2018-12-13,04:22:59.832,0.50994873,11.4149475,3.118515
2018-12-13,04:22:59.854,1.0002746999999999,10.806931,3.3538818
2018-12-13,04:22:59.875,1.3729248,9.708588,3.9226532
2018-12-13,04:22:59.893,1.5690613000000002,8.453339,4.5110626
2018-12-13,04:22:59.913,1.0983428999999998,7.551117,4.9033203
2018-12-13,04:22:59.933,0.47071838,7.5118865999999995,4.707199
2018-12-13,04:22:59.954,-0.15690613,7.9041595000000004,4.3541565
2018-12-13,04:22:59.975,-0.09806824,8.571014,4.059952
2018-12-13,04:22:59.993,0.3530426,9.179031,3.7461394999999995
2018-12-13,04:23:00.016,0.7453003,9.492844,3.3146515
2018-12-13,04:23:00.041,1.3533173,9.5516815,3.0792847
2018-12-13,04:23:00.055,1.9221039,9.296707000000001,2.6477966
2018-12-13,04:23:00.077,2.3143768,8.884827,2.137848
2018-12-13,04:23:00.094,1.8828735,8.649460000000001,2.510498
2018-12-13,04:23:00.114,1.4906158,8.531784,2.5889587000000005
2018-12-13,04:23:00.137,1.1768036,8.5121765,2.7066345000000003
2018-12-13,04:23:00.158,1.0787354,8.649460000000001,2.7262419999999996
2018-12-13,04:23:00.176,0.9610443000000001,8.825989,2.6674042
2018-12-13,04:23:00.195,0.7649231,8.865219,2.5889587000000005
2018-12-13,04:23:00.215,0.64723206,8.884827,2.3732147
2018-12-13,04:23:00.241,0.7060852,8.943665,2.2359161
2018-12-13,04:23:00.256,0.78453064,9.06134,2.294754
2018-12-13,04:23:00.277,1.0198975000000001,9.041733,2.294754
2018-12-13,04:23:00.296,1.1571808000000001,8.865219,2.2751465
2018-12-13,04:23:00.316,1.1768036,8.629852,2.2359161
2018-12-13,04:23:00.338,1.1768036,8.433716,2.137848
2018-12-13,04:23:00.357,1.0591125,8.590622,2.07901
2018-12-13,04:23:00.378,0.84336853,9.022125,2.07901
2018-12-13,04:23:00.397,0.6864624,9.5516815,2.1966857999999996
2018-12-13,04:23:00.418,0.5491791,9.943939,2.3928222999999997
2018-12-13,04:23:00.442,0.45111084,10.120467999999999,2.5889587000000005
2018-12-13,04:23:00.461,0.23536682,10.218536,2.7458649
2018-12-13,04:23:00.477,0.039230347,10.179306,2.7850952
2018-12-13,04:23:00.498,0.17651367,10.336212,2.8047028
2018-12-13,04:23:00.532,0.47071838,10.904999,2.902771
2018-12-13,04:23:00.537,0.6864624,11.258041,2.961609
2018-12-13,04:23:00.569,0.6864624,11.258041,2.961609
2018-12-13,04:23:00.579,0.6864624,10.72847,3.0989075
2018-12-13,04:23:00.601,0.43148804,9.963562,3.3734894
2018-12-13,04:23:00.627,0.05883789,8.982895,4.1776276
2018-12-13,04:23:00.644,-0.23536682,8.374878,5.197525
2018-12-13,04:23:00.658,0.19613647,8.31604,5.8251495
2018-12-13,04:23:00.678,1.0983428999999998,8.355269999999999,5.6682434
2018-12-13,04:23:00.697,1.7848053,8.080672999999999,4.824875
2018-12-13,04:23:00.721,1.3140869,8.198364,3.9226532
2018-12-13,04:23:00.739,0.45111084,8.610244999999999,3.334259
2018-12-13,04:23:00.761,-0.11767578,9.002502,3.118515
2018-12-13,04:23:00.783,-0.78453064,9.375153,3.2361908
2018-12-13,04:23:00.810,-1.2944794,9.473221,3.334259
2018-12-13,04:23:00.825,-1.1375732,9.237869,3.1381226000000004
2018-12-13,04:23:00.841,-0.58839417,8.845596,3.0792847
2018-12-13,04:23:00.861,-0.21574402,8.472946,3.0989075
2018-12-13,04:23:00.881,0.25497437,8.414108,2.9223784999999998
2018-12-13,04:23:00.901,0.3334198,8.610244999999999,2.5889587000000005
2018-12-13,04:23:00.937,0.19613647,8.806366,2.471283
2018-12-13,04:23:00.941,0.019607543999999998,8.767151,2.3928222999999997
2018-12-13,04:23:00.962,-0.19613647,8.68869,2.3143768
2018-12-13,04:23:00.982,-0.37265015,8.571014,2.294754
2018-12-13,04:23:01.002,-0.5295563,8.374878,2.2555237
2018-12-13,04:23:01.031,-0.6276245,8.355269999999999,2.2555237
2018-12-13,04:23:01.045,-0.60801697,8.551392,2.1770782000000004
2018-12-13,04:23:01.061,-0.60801697,8.825989,2.1574554
2018-12-13,04:23:01.091,-0.64723206,9.453613,2.3143768
2018-12-13,04:23:01.110,-0.45111084,10.0224,2.569336
2018-12-13,04:23:01.124,-0.15690613,10.218536,2.7458649
2018-12-13,04:23:01.142,0.23536682,10.179306,2.7654723999999997
2018-12-13,04:23:01.162,0.60801697,9.865494,2.4320526
2018-12-13,04:23:01.183,0.37265015,9.708588,2.137848
2018-12-13,04:23:01.210,0.039230347,10.042007,2.2163086
2018-12-13,04:23:01.225,-0.15690613,10.571564,2.4908905
2018-12-13,04:23:01.242,-0.27458190000000005,11.042282,2.9223784999999998
2018-12-13,04:23:01.265,-0.5687866,11.179580999999999,3.5696258999999997
2018-12-13,04:23:01.289,-0.50994873,10.434280000000001,3.9226532
2018-12-13,04:23:01.309,0.23536682,9.3359375,4.3541565
2018-12-13,04:23:01.323,1.039505,8.414108,4.981781
2018-12-13,04:23:01.344,1.2944794,8.198364,5.3348236
2018-12-13,04:23:01.364,0.8237610000000001,8.394485000000001,5.589798
2018-12-13,04:23:01.390,0.09806824,8.2964325,4.648346
2018-12-13,04:23:01.409,0.07846069,8.453339,3.9030457000000003
2018-12-13,04:23:01.424,0.50994873,8.982895,3.2950287000000005
2018-12-13,04:23:01.445,0.8041381999999999,9.492844,2.9420013
2018-12-13,04:23:01.464,1.3925476,9.394775,2.7850952
2018-12-13,04:23:01.489,2.2359161,8.786758,2.7066345000000003
2018-12-13,04:23:01.505,1.863266,8.571014,2.4516602
2018-12-13,04:23:01.524,1.3729248,8.472946,2.6674042
2018-12-13,04:23:01.545,0.84336853,8.551392,2.7066345000000003
2018-12-13,04:23:01.564,0.47071838,8.492554,2.7066345000000003
2018-12-13,04:23:01.586,0.25497437,8.531784,2.510498
2018-12-13,04:23:01.606,0.13729858,8.747527999999999,2.3143768
2018-12-13,04:23:01.625,-0.039230347,8.943665,2.2751465
2018-12-13,04:23:01.646,-0.11767578,9.06134,2.2359161
2018-12-13,04:23:01.666,-0.11767578,9.06134,2.2555237
2018-12-13,04:23:01.689,0.039230347,8.924057000000001,2.2751465
2018-12-13,04:23:01.706,0.25497437,8.845596,2.2555237
2018-12-13,04:23:01.726,0.39227295,8.904434,2.2555237
2018-12-13,04:23:01.746,0.6864624,9.080963,2.3143768
2018-12-13,04:23:01.766,0.84336853,9.237869,2.3143768
2018-12-13,04:23:01.789,0.66685486,9.5516815,2.294754
2018-12-13,04:23:01.809,0.5491791,9.885100999999999,2.3928222999999997
2018-12-13,04:23:01.827,0.3334198,10.179306,2.4516602
2018-12-13,04:23:01.847,0.09806824,10.277374,2.5497284
2018-12-13,04:23:01.871,-0.21574402,10.551956,2.6674042
2018-12-13,04:23:01.889,-0.39227295,11.042282,2.902771
2018-12-13,04:23:01.908,-0.39227295,11.611069,3.118515
2018-12-13,04:23:01.928,-0.5491791,11.5130005,3.4715576
2018-12-13,04:23:01.949,-0.8041381999999999,10.904999,4.099182
2018-12-13,04:23:01.972,-1.1964111000000002,10.0224,4.942550700000001
2018-12-13,04:23:01.992,-1.6475220000000002,9.237869,6.0997314000000005
2018-12-13,04:23:02.011,-0.72569275,8.472946,6.884262
2018-12-13,04:23:02.028,0.31381226,7.6687927,5.9820557
2018-12-13,04:23:02.048,1.0002746999999999,7.060791,4.864105
2018-12-13,04:23:02.071,1.4121552,6.943115,3.550003
2018-12-13,04:23:02.091,0.7649231,7.5903472999999995,2.9223784999999998
2018-12-13,04:23:02.108,0.7649231,7.5903472999999995,2.9223784999999998
2018-12-13,04:23:02.129,0.11767578,8.31604,2.8047028
2018-12-13,04:23:02.149,-0.6276245,8.68869,3.0400543
2018-12-13,04:23:02.177,-1.3925476,8.786758,3.7461394999999995
2018-12-13,04:23:02.190,-1.2944794,8.610244999999999,3.726532
2018-12-13,04:23:02.207,-1.1768036,8.257202000000001,3.550003
2018-12-13,04:23:02.229,-0.94143677,8.159134,3.4911652
2018-12-13,04:23:02.249,-0.8237610000000001,8.2964325,3.1381226000000004
2018-12-13,04:23:02.276,-0.58839417,8.472946,2.9420013
2018-12-13,04:23:02.293,-0.41188050000000004,8.629852,2.6477966
2018-12-13,04:23:02.310,-0.2942047,8.786758,2.4320526
2018-12-13,04:23:02.331,-0.2942047,8.786758,2.2359161
2018-12-13,04:23:02.357,-0.3334198,8.747527999999999,2.1770782000000004
2018-12-13,04:23:02.372,-0.5491791,8.68869,2.137848
2018-12-13,04:23:02.392,-0.7060852,8.571014,2.0986176
2018-12-13,04:23:02.410,-0.72569275,8.610244999999999,2.0594025
2018-12-13,04:23:02.431,-0.5491791,9.002502,1.9613342
2018-12-13,04:23:02.451,-0.37265015,9.453613,2.07901
2018-12-13,04:23:02.472,-0.019607543999999998,10.042007,2.3732147
2018-12-13,04:23:02.492,0.31381226,10.434280000000001,2.5889587000000005
2018-12-13,04:23:02.511,0.25497437,10.198914,2.6477966
2018-12-13,04:23:02.530,-0.13729858,10.4734955,2.961609
2018-12-13,04:23:02.552,-0.47071838,11.611069,3.2754211
2018-12-13,04:23:02.582,-0.27458190000000005,12.395599,3.7853699
2018-12-13,04:23:02.602,0.39227295,11.846436,4.393371599999999
2018-12-13,04:23:02.612,1.5494537,10.708862,4.589508
2018-12-13,04:23:02.633,2.1966857999999996,9.492844,4.922943
2018-12-13,04:23:02.657,1.8240356,8.453339,5.8251495
2018-12-13,04:23:02.679,0.7453003,7.708023,5.7074738
2018-12-13,04:23:02.693,-0.31381226,7.237304700000001,4.609131
2018-12-13,04:23:02.712,-0.7060852,7.5118865999999995,3.8638152999999997
2018-12-13,04:23:02.733,-0.17651367,8.061066,3.4323273000000003
2018-12-13,04:23:02.755,0.64723206,8.649460000000001,3.1381226000000004
2018-12-13,04:23:02.774,1.2748718,8.786758,3.0204467999999998
2018-12-13,04:23:02.794,1.6671295,8.531784,3.0400543
2018-12-13,04:23:02.813,1.0591125,8.355269999999999,2.6477966
2018-12-13,04:23:02.834,0.5687866,8.237579,2.5889587000000005
2018-12-13,04:23:02.870,0.27458190000000005,8.217972,2.628189
2018-12-13,04:23:02.876,0.17651367,8.31604,2.7262419999999996
2018-12-13,04:23:02.895,0.2942047,8.5121765,2.687027
2018-12-13,04:23:02.914,0.50994873,8.727921,2.687027
2018-12-13,04:23:02.934,0.72569275,8.884827,2.8831482000000004
2018-12-13,04:23:02.954,0.8237610000000001,8.845596,2.8047028
2018-12-13,04:23:02.974,0.72569275,8.825989,2.6085662999999997
2018-12-13,04:23:02.996,0.5491791,8.786758,2.3732147
2018-12-13,04:23:03.015,0.49032593,8.727921,2.2163086
2018-12-13,04:23:03.035,0.45111084,8.571014,2.1182404
2018-12-13,04:23:03.056,0.3530426,8.68869,2.0005493000000003
2018-12-13,04:23:03.077,0.41188050000000004,9.198639,2.0005493000000003
2018-12-13,04:23:03.096,0.45111084,9.924332000000001,2.2359161
2018-12-13,04:23:03.126,0.45111084,10.4734955,2.569336
2018-12-13,04:23:03.144,0.21574402,10.532349,2.6477966
2018-12-13,04:23:03.158,-0.039230347,10.218536,2.510498
2018-12-13,04:23:03.176,0.13729858,9.963562,2.3732147
2018-12-13,04:23:03.197,0.27458190000000005,10.316589,2.4516602
2018-12-13,04:23:03.229,0.37265015,10.983444,2.7066345000000003
2018-12-13,04:23:03.242,0.3334198,11.042282,3.0204467999999998
2018-12-13,04:23:03.261,0.21574402,10.336212,3.4127197
2018-12-13,04:23:03.278,-0.019607543999999998,9.747803,5.099457
2018-12-13,04:23:03.298,-0.86299133,9.943939,7.060791
2018-12-13,04:23:03.325,-0.41188050000000004,9.767425999999999,7.6295776
2018-12-13,04:23:03.343,0.21574402,8.551392,6.550842299999999
2018-12-13,04:23:03.357,0.5491791,7.551117,4.6875763
2018-12-13,04:23:03.378,0.58839417,7.7472534,3.3146515
2018-12-13,04:23:03.398,0.27458190000000005,8.217972,2.6477966
2018-12-13,04:23:03.424,-0.05883789,8.669083,2.4908905
2018-12-13,04:23:03.438,-0.39227295,8.747527999999999,2.6085662999999997
2018-12-13,04:23:03.458,-0.7060852,8.786758,3.0596771
2018-12-13,04:23:03.478,-0.5687866,8.629852,2.7458649
2018-12-13,04:23:03.498,-0.3530426,8.414108,2.7458649
2018-12-13,04:23:03.525,-0.25497437,8.394485000000001,2.7654723999999997
2018-12-13,04:23:03.540,-0.31381226,8.355269999999999,2.7458649
2018-12-13,04:23:03.559,-0.41188050000000004,8.414108,2.5889587000000005
2018-12-13,04:23:03.580,-0.37265015,8.649460000000001,2.4320526
2018-12-13,04:23:03.602,-0.31381226,8.806366,2.1966857999999996
2018-12-13,04:23:03.628,-0.31381226,8.806366,2.1966857999999996
2018-12-13,04:23:03.643,-0.11767578,8.237579,1.9417113999999998
2018-12-13,04:23:03.659,-0.11767578,8.237579,1.9417113999999998
2018-12-13,04:23:03.679,-0.13729858,8.198364,1.9024963
2018-12-13,04:23:03.701,-0.21574402,8.414108,1.7651978
2018-12-13,04:23:03.724,-0.25497437,9.002502,1.8436432
2018-12-13,04:23:03.741,-0.27458190000000005,9.787033000000001,2.1770782000000004
2018-12-13,04:23:03.761,-0.21574402,10.316589,2.353592
2018-12-13,04:23:03.782,0.07846069,10.198914,2.3339844
2018-12-13,04:23:03.804,0.17651367,10.277374,2.3732147
2018-12-13,04:23:03.823,-0.13729858,10.944214,2.7066345000000003
2018-12-13,04:23:03.842,-0.07846069,11.591461,3.0596771
2018-12-13,04:23:03.862,0.23536682,11.356094,3.334259
2018-12-13,04:23:03.881,0.50994873,10.708862,3.6676940000000005
2018-12-13,04:23:03.901,0.84336853,9.98317,4.059952
2018-12-13,04:23:03.922,0.9610443000000001,9.590897,4.922943
2018-12-13,04:23:03.942,0.86299133,9.590897,5.6094055
2018-12-13,04:23:03.961,0.78453064,9.669357000000002,5.923218
2018-12-13,04:23:03.982,0.60801697,9.237869,5.5113373
2018-12-13,04:23:04.010,0.8825989,8.767151,4.53067
2018-12-13,04:23:04.026,1.1375732,8.825989,3.6676940000000005
2018-12-13,04:23:04.041,1.3140869,8.963272,2.961609
2018-12-13,04:23:04.063,1.255249,8.825989,2.4908905
2018-12-13,04:23:04.092,1.5494537,8.492554,2.510498
2018-12-13,04:23:04.109,1.5102233999999999,8.335647999999999,2.2555237
2018-12-13,04:23:04.126,1.3729248,8.217972,2.1770782000000004
2018-12-13,04:23:04.142,1.039505,8.217972,2.510498
2018-12-13,04:23:04.162,0.7453003,8.198364,2.687027
2018-12-13,04:23:04.183,0.49032593,8.31604,2.8439330000000003
2018-12-13,04:23:04.205,0.2942047,8.590622,2.628189
2018-12-13,04:23:04.276,0.2942047,8.747527999999999,2.3339844
2018-12-13,04:23:04.277,0.41188050000000004,8.767151,2.2359161
2018-12-13,04:23:04.278,0.41188050000000004,8.747527999999999,2.2163086
2018-12-13,04:23:04.291,0.43148804,8.629852,2.137848
2018-12-13,04:23:04.307,0.5295563,8.590622,2.0986176
2018-12-13,04:23:04.324,0.7453003,8.531784,2.0397797
2018-12-13,04:23:04.344,0.9022064000000001,8.551392,1.9221039
2018-12-13,04:23:04.364,0.7649231,8.825989,2.020172
2018-12-13,04:23:04.385,0.50994873,9.316315,2.1574554
2018-12-13,04:23:04.406,0.3530426,9.924332000000001,2.4516602
2018-12-13,04:23:04.427,0.11767578,10.434280000000001,2.7458649
2018-12-13,04:23:04.446,-0.23536682,10.453888000000001,2.687027
2018-12-13,04:23:04.465,-0.3334198,10.316589,2.628189
2018-12-13,04:23:04.493,-0.11767578,10.414658,2.7458649
2018-12-13,04:23:04.506,0.11767578,10.963837,2.9420013
2018-12-13,04:23:04.526,0.5687866,11.258041,3.0204467999999998
2018-12-13,04:23:04.546,0.58839417,10.434280000000001,3.0792847
2018-12-13,04:23:04.566,0.2942047,9.532059,3.8049774
2018-12-13,04:23:04.596,-0.21574402,9.159409,5.315201
2018-12-13,04:23:04.615,-0.8825989,9.198639,6.825424000000001
2018-12-13,04:23:04.626,-0.13729858,9.06134,7.217697
2018-12-13,04:23:04.647,0.58839417,8.31604,6.080124
2018-12-13,04:23:04.667,0.84336853,7.786484,4.5699005
2018-12-13,04:23:04.690,0.37265015,8.119904,3.5696258999999997
2018-12-13,04:23:04.707,-0.23536682,8.571014,3.0596771
2018-12-13,04:23:04.727,-0.5687866,8.590622,2.9420013
2018-12-13,04:23:04.747,-1.0198975000000001,8.217972,2.9420013
2018-12-13,04:23:04.772,-0.9806671,7.9826202,3.0008392
2018-12-13,04:23:04.788,-0.60801697,7.884552,2.7458649
2018-12-13,04:23:04.808,-0.19613647,8.002228,2.7066345000000003
2018-12-13,04:23:04.827,0.17651367,8.355269999999999,2.5889587000000005
2018-12-13,04:23:04.849,0.2942047,8.669083,2.3732147
2018-12-13,04:23:04.882,0.31381226,9.022125,2.07901
2018-12-13,04:23:04.887,0.21574402,9.198639,1.9221039
2018-12-13,04:23:04.908,-0.039230347,9.198639,1.9024963
2018-12-13,04:23:04.929,-0.2942047,9.080963,2.0005493000000003
2018-12-13,04:23:04.948,-0.45111084,8.884827,2.0986176
2018-12-13,04:23:04.970,-0.50994873,8.747527999999999,2.137848
2018-12-13,04:23:04.990,-0.5687866,8.708298,2.2359161
2018-12-13,04:23:05.010,-0.64723206,8.963272,2.1574554
2018-12-13,04:23:05.029,-0.58839417,9.355545,2.2163086
2018-12-13,04:23:05.049,-0.5687866,9.787033000000001,2.4320526
2018-12-13,04:23:05.071,-0.47071838,10.002777,2.4908905
2018-12-13,04:23:05.089,-0.27458190000000005,10.081238,2.4124298
2018-12-13,04:23:05.110,-0.11767578,10.159683,2.4124298
2018-12-13,04:23:05.130,0.019607543999999998,10.865768,2.5889587000000005
2018-12-13,04:23:05.150,0.25497437,11.905273,2.8243103
2018-12-13,04:23:05.171,0.25497437,11.905273,2.8243103
2018-12-13,04:23:05.191,0.60801697,12.022949,3.0792847
2018-12-13,04:23:05.211,0.8825989,11.120743,3.2558136
2018-12-13,04:23:05.229,1.0983428999999998,10.061630000000001,3.5696258999999997
2018-12-13,04:23:05.252,1.1964111000000002,9.4339905,4.432601999999999
2018-12-13,04:23:05.281,1.039505,9.159409,5.3740387
2018-12-13,04:23:05.291,0.86299133,9.473221,6.0408935999999995
2018-12-13,04:23:05.325,0.5491791,9.218246,5.687851
2018-12-13,04:23:05.347,0.60801697,8.629852,4.766037
2018-12-13,04:23:05.361,0.9610443000000001,8.355269999999999,3.7461394999999995
2018-12-13,04:23:05.373,1.255249,8.453339,2.902771
2018-12-13,04:23:05.392,1.5494537,8.610244999999999,2.3143768
2018-12-13,04:23:05.413,2.0397797,8.5121765,2.1182404
2018-12-13,04:23:05.439,2.0594025,8.31604,2.2751465
2018-12-13,04:23:05.455,1.7455901999999999,8.374878,2.137848
2018-12-13,04:23:05.476,1.3533173,8.276810000000001,2.3339844
2018-12-13,04:23:05.492,0.6864624,8.257202000000001,2.628189
2018-12-13,04:23:05.513,0.27458190000000005,8.2964325,2.8635406000000003
2018-12-13,04:23:05.533,0.23536682,8.551392,2.569336
2018-12-13,04:23:05.556,0.47071838,8.68869,2.2359161
2018-12-13,04:23:05.573,0.58839417,8.727921,2.07901
2018-12-13,04:23:05.593,0.5687866,8.68869,2.1182404
2018-12-13,04:23:05.615,0.5491791,8.669083,2.0594025
2018-12-13,04:23:05.644,0.60801697,8.551392,1.9613342
2018-12-13,04:23:05.657,0.6864624,8.472946,1.7455901999999999
2018-12-13,04:23:05.675,0.7649231,8.590622,1.6671295
2018-12-13,04:23:05.694,0.8041381999999999,8.924057000000001,1.8044281000000002
2018-12-13,04:23:05.714,0.72569275,9.512450999999999,2.0005493000000003
2018-12-13,04:23:05.743,0.58839417,10.198914,2.2555237
2018-12-13,04:23:05.762,0.3334198,10.551956,2.4320526
2018-12-13,04:23:05.776,-0.09806824,10.669632,2.628189
2018-12-13,04:23:05.795,-0.43148804,10.7677,2.8243103
2018-12-13,04:23:05.824,-0.45111084,11.277649,3.2165833
2018-12-13,04:23:05.843,-0.41188050000000004,11.395325,3.2950287000000005
2018-12-13,04:23:05.857,-0.45111084,10.826538000000001,3.334259
2018-12-13,04:23:05.875,-0.41188050000000004,9.885100999999999,3.6676940000000005
2018-12-13,04:23:05.895,-0.37265015,9.277084,4.7856445
2018-12-13,04:23:05.916,0.27458190000000005,9.610519,6.276260400000001
2018-12-13,04:23:05.942,1.1964111000000002,9.669357000000002,6.629303
2018-12-13,04:23:05.955,1.4513855,9.041733,5.6682434
2018-12-13,04:23:05.976,0.9218291999999999,8.414108,4.5699005
2018-12-13,04:23:05.996,0.23536682,8.433716,3.393097
2018-12-13,04:23:06.022,-0.3530426,8.747527999999999,2.5889587000000005
2018-12-13,04:23:06.039,-1.0983428999999998,8.884827,2.4516602
2018-12-13,04:23:06.056,-1.863266,8.982895,2.7262419999999996
2018-12-13,04:23:06.077,-1.863266,8.767151,3.1381226000000004
2018-12-13,04:23:06.097,-1.470993,8.433716,3.118515
2018-12-13,04:23:06.117,-0.86299133,8.002228,3.0400543
2018-12-13,04:23:06.143,-0.37265015,7.649185000000001,2.7066345000000003
2018-12-13,04:23:06.162,0.11767578,7.5315094,2.2555237
2018-12-13,04:23:06.178,0.39227295,7.8453217,1.6475220000000002
2018-12-13,04:23:06.196,0.3334198,8.374878,1.431778
2018-12-13,04:23:06.223,0.09806824,8.845596,1.470993
2018-12-13,04:23:06.244,-0.39227295,9.041733,1.5886841
2018-12-13,04:23:06.258,-0.9022064000000001,8.924057000000001,1.7063598999999998
2018-12-13,04:23:06.282,-1.2748718,8.786758,2.1182404
2018-12-13,04:23:06.299,-1.3337097,8.884827,2.510498
2018-12-13,04:23:06.324,-1.039505,9.316315,2.6085662999999997
2018-12-13,04:23:06.342,-0.7453003,9.708588,2.6085662999999997
2018-12-13,04:23:06.361,-0.2942047,9.747803,2.5301207999999997
2018-12-13,04:23:06.378,0.19613647,9.747803,2.471283
2018-12-13,04:23:06.398,0.15690613,10.453888000000001,2.7654723999999997
2018-12-13,04:23:06.423,0.09806824,11.336487,3.0204467999999998
2018-12-13,04:23:06.443,0.3334198,11.944504,3.1577453999999996
2018-12-13,04:23:06.461,0.6864624,11.846436,3.4127197
2018-12-13,04:23:06.485,0.8237610000000001,10.924605999999999,3.5892334000000004
2018-12-13,04:23:06.507,0.84336853,10.100845,4.15802
2018-12-13,04:23:06.524,0.9022064000000001,9.865494,5.0210114
2018-12-13,04:23:06.542,1.0787354,9.787033000000001,5.5505676
2018-12-13,04:23:06.560,1.255249,9.473221,5.589798
2018-12-13,04:23:06.580,1.3533173,9.002502,4.8444824
2018-12-13,04:23:06.600,1.3925476,8.68869,3.7461394999999995
2018-12-13,04:23:06.623,1.5886841,8.708298,2.6674042
2018-12-13,04:23:06.645,1.863266,8.767151,2.0594025
2018-12-13,04:23:06.662,2.07901,8.5121765,1.6867371
2018-12-13,04:23:06.681,1.9809418,8.276810000000001,1.9613342
2018-12-13,04:23:06.700,1.7455901999999999,8.002228,1.8044281000000002
2018-12-13,04:23:06.722,1.7455901999999999,8.002228,1.8044281000000002
2018-12-13,04:23:06.740,1.1964111000000002,8.002228,2.0005493000000003
2018-12-13,04:23:06.761,0.6864624,7.9826202,2.353592
2018-12-13,04:23:06.781,0.23536682,7.9629974,2.5889587000000005
2018-12-13,04:23:06.804,0.47071838,8.041458,2.4516602
2018-12-13,04:23:06.822,0.5687866,8.257202000000001,2.1966857999999996
2018-12-13,04:23:06.842,0.6276245,8.414108,2.0986176
2018-12-13,04:23:06.862,0.60801697,8.590622,2.0397797
2018-12-13,04:23:06.889,0.64723206,8.747527999999999,2.020172
2018-12-13,04:23:06.906,0.86299133,9.002502,2.0397797
2018-12-13,04:23:06.923,1.0591125,9.218246,1.9613342
2018-12-13,04:23:06.943,1.5298308999999999,9.590897,1.9613342
2018-12-13,04:23:06.962,1.6278992,10.042007,2.137848
2018-12-13,04:23:06.983,1.3925476,10.493117999999999,2.471283
2018-12-13,04:23:07.004,0.9218291999999999,10.610794,2.7262419999999996
2018-12-13,04:23:07.024,0.25497437,10.551956,2.7458649
2018-12-13,04:23:07.044,-0.45111084,10.610794,2.7654723999999997
2018-12-13,04:23:07.062,-0.60801697,10.610794,2.8047028
2018-12-13,04:23:07.088,-0.15690613,10.983444,3.0400543
2018-12-13,04:23:07.103,0.37265015,11.14035,3.0792847
2018-12-13,04:23:07.124,0.5491791,10.296982,3.0400543
2018-12-13,04:23:07.144,0.37265015,9.022125,3.5696258999999997
2018-12-13,04:23:07.164,0.27458190000000005,8.590622,4.53067
2018-12-13,04:23:07.184,0.3334198,8.708298,5.90361
2018-12-13,04:23:07.212,0.9022064000000001,9.179031,6.374328599999999
2018-12-13,04:23:07.226,1.431778,8.806366,5.687851
2018-12-13,04:23:07.244,1.1964111000000002,8.453339,4.805251999999999
2018-12-13,04:23:07.271,0.49032593,8.5121765,3.9226532
2018-12-13,04:23:07.289,-0.13729858,8.786758,3.118515
2018-12-13,04:23:07.309,-0.72569275,8.767151,2.9223784999999998
2018-12-13,04:23:07.329,-1.1375732,8.610244999999999,2.8831482000000004
2018-12-13,04:23:07.345,-1.039505,8.492554,3.2558136
2018-12-13,04:23:07.366,-0.7453003,8.257202000000001,3.393097
2018-12-13,04:23:07.395,-0.50994873,8.139526,3.3146515
2018-12-13,04:23:07.410,-0.15690613,7.9826202,3.0204467999999998
2018-12-13,04:23:07.427,0.019607543999999998,7.9629974,2.7458649
2018-12-13,04:23:07.446,0.09806824,8.178741,2.2359161
2018-12-13,04:23:07.476,0.15690613,8.355269999999999,1.9221039
2018-12-13,04:23:07.493,-0.05883789,8.551392,1.863266
2018-12-13,04:23:07.509,-0.3334198,8.629852,1.8044281000000002
2018-12-13,04:23:07.528,-0.7060852,8.551392,2.0397797
2018-12-13,04:23:07.547,-0.84336853,8.492554,2.1574554
2018-12-13,04:23:07.567,-0.64723206,8.747527999999999,2.3339844
2018-12-13,04:23:07.591,-0.39227295,9.296707000000001,2.4320526
2018-12-13,04:23:07.614,-0.07846069,9.806656,2.6477966
2018-12-13,04:23:07.631,0.39227295,9.787033000000001,2.569336
2018-12-13,04:23:07.647,0.5491791,9.414383,2.2359161
2018-12-13,04:23:07.675,0.45111084,9.688965,2.0397797
2018-12-13,04:23:07.693,0.11767578,10.72847,2.4124298
2018-12-13,04:23:07.707,0.09806824,11.964111,2.902771
2018-12-13,04:23:07.729,0.21574402,12.258316,3.510788
2018-12-13,04:23:07.749,0.41188050000000004,11.238419,3.883438
2018-12-13,04:23:07.773,0.8237610000000001,10.257750999999999,4.275696
2018-12-13,04:23:07.789,1.0002746999999999,9.98317,5.040619
2018-12-13,04:23:07.811,1.039505,9.98317,5.5505676
2018-12-13,04:23:07.830,1.2160187,9.728195,5.570175
2018-12-13,04:23:07.857,1.2944794,9.316315,4.942550700000001
2018-12-13,04:23:07.874,1.5690613000000002,8.806366,3.8246002
2018-12-13,04:23:07.892,1.6475220000000002,8.649460000000001,3.0204467999999998
2018-12-13,04:23:07.910,2.137848,8.531784,2.1182404
2018-12-13,04:23:07.929,1.9221039,8.374878,1.6278992
2018-12-13,04:23:07.950,1.8240356,8.355269999999999,2.020172
2018-12-13,04:23:07.972,1.6867371,8.31604,2.0594025
2018-12-13,04:23:07.990,1.2356415,8.217972,2.2359161
2018-12-13,04:23:08.010,0.78453064,8.021835000000001,2.510498
2018-12-13,04:23:08.030,0.27458190000000005,7.923767,2.7262419999999996
2018-12-13,04:23:08.055,0.15690613,8.159134,2.6477966
2018-12-13,04:23:08.072,0.19613647,8.453339,2.3143768
2018-12-13,04:23:08.092,0.31381226,8.68869,2.1182404
2018-12-13,04:23:08.111,0.2942047,8.884827,1.9221039
2018-12-13,04:23:08.144,0.31381226,9.022125,1.8828735
2018-12-13,04:23:08.155,0.37265015,9.120178,1.8436432
2018-12-13,04:23:08.172,0.49032593,9.120178,1.9024963
2018-12-13,04:23:08.191,0.60801697,9.159409,2.0005493000000003
2018-12-13,04:23:08.211,0.58839417,9.277084,2.020172
2018-12-13,04:23:08.329,0.47071838,9.5516815,1.9809418
2018-12-13,04:23:08.332,0.47071838,9.5516815,1.9809418
2018-12-13,04:23:08.333,0.17651367,10.551956,2.2555237
2018-12-13,04:23:08.334,-0.019607543999999998,10.4734955,2.2555237
2018-12-13,04:23:08.335,-0.45111084,10.650024,2.2555237
2018-12-13,04:23:08.336,-0.9218291999999999,10.3754425,2.2555237
2018-12-13,04:23:08.354,-0.9218291999999999,10.336212,2.3732147
2018-12-13,04:23:08.373,-0.58839417,10.865768,2.6085662999999997
2018-12-13,04:23:08.393,-0.17651367,11.650299,2.9812164
2018-12-13,04:23:08.413,-0.15690613,11.14035,3.1969604
2018-12-13,04:23:08.434,-0.25497437,10.0224,3.8442078
2018-12-13,04:23:08.456,-0.60801697,9.257477,5.275970500000001
2018-12-13,04:23:08.477,-0.8041381999999999,9.198639,7.139236500000001
2018-12-13,04:23:08.494,0.3530426,9.139801,7.492278999999999
2018-12-13,04:23:08.514,0.9610443000000001,8.472946,6.2958680000000005
2018-12-13,04:23:08.541,1.4121552,7.6884155,4.6287384000000005
2018-12-13,04:23:08.558,1.0983428999999998,8.041458,3.3538818
2018-12-13,04:23:08.573,0.3334198,8.374878,2.8243103
2018-12-13,04:23:08.595,-0.3530426,8.551392,2.6085662999999997
2018-12-13,04:23:08.614,-0.9218291999999999,8.433716,2.687027
2018-12-13,04:23:08.657,-1.4121552,8.453339,3.1969604
2018-12-13,04:23:08.663,-1.0983428999999998,8.492554,3.0989075
2018-12-13,04:23:08.682,-0.7649231,8.374878,3.0989075
2018-12-13,04:23:08.695,-0.47071838,8.237579,3.0008392
2018-12-13,04:23:08.716,-0.05883789,8.139526,2.8047028
2018-12-13,04:23:08.744,0.039230347,8.198364,2.3732147
2018-12-13,04:23:08.762,0.17651367,8.355269999999999,1.9613342
2018-12-13,04:23:08.776,0.3334198,8.5121765,1.7063598999999998
2018-12-13,04:23:08.796,0.23536682,8.531784,1.6278992
2018-12-13,04:23:08.816,0.13729858,8.394485000000001,1.7651978
2018-12-13,04:23:08.838,-0.039230347,8.414108,1.863266
2018-12-13,04:23:08.859,-0.13729858,8.649460000000001,1.9809418
2018-12-13,04:23:08.877,-0.2942047,9.080963,2.07901
2018-12-13,04:23:08.895,-0.2942047,9.787033000000001,2.4124298
2018-12-13,04:23:08.917,-0.23536682,10.39505,2.7654723999999997
2018-12-13,04:23:08.938,0.21574402,10.316589,2.8047028
2018-12-13,04:23:08.956,0.2942047,9.767425999999999,2.5889587000000005
2018-12-13,04:23:08.977,-0.019607543999999998,10.218536,2.7458649
2018-12-13,04:23:08.998,-0.13729858,11.258041,2.9420013
2018-12-13,04:23:09.017,0.019607543999999998,12.042572,3.2950287000000005
2018-12-13,04:23:09.038,0.3334198,11.709137,3.3734894
2018-12-13,04:23:09.058,0.6276245,10.708862,3.5303955
2018-12-13,04:23:09.077,0.86299133,9.806656,4.118789700000001
2018-12-13,04:23:09.098,0.78453064,9.453613,5.197525
2018-12-13,04:23:09.132,0.7649231,9.414383,5.7663116
2018-12-13,04:23:09.140,0.86299133,9.453613,5.7074738
2018-12-13,04:23:09.162,1.039505,9.296707000000001,5.040619
2018-12-13,04:23:09.179,1.3337097,9.06134,3.9030457000000003
2018-12-13,04:23:09.198,1.6475220000000002,8.884827,2.9812164
2018-12-13,04:23:09.217,2.471283,8.669083,2.2751465
2018-12-13,04:23:09.240,2.3143768,8.2964325,1.7848053
2018-12-13,04:23:09.258,2.07901,7.9826202,2.020172
2018-12-13,04:23:09.353,1.7259673999999998,7.864928999999999,1.8240356
2018-12-13,04:23:09.354,1.1768036,7.8453217,2.0986176
2018-12-13,04:23:09.355,0.6276245,7.8453217,2.353592
2018-12-13,04:23:09.356,0.2942047,7.923767,2.6477966
2018-12-13,04:23:09.366,0.2942047,8.100296,2.5301207999999997
2018-12-13,04:23:09.380,0.3334198,8.355269999999999,2.471283
2018-12-13,04:23:09.406,0.47071838,8.747527999999999,2.4124298
2018-12-13,04:23:09.421,0.6276245,8.982895,2.3928222999999997
2018-12-13,04:23:09.441,0.9218291999999999,9.100571,2.2751465
2018-12-13,04:23:09.460,1.0983428999999998,9.100571,2.1966857999999996
2018-12-13,04:23:09.488,1.2356415,9.041733,2.2555237
2018-12-13,04:23:09.501,1.3337097,9.179031,2.1770782000000004
2018-12-13,04:23:09.523,1.3140869,9.453613,2.1574554
2018-12-13,04:23:09.540,1.1964111000000002,9.806656,2.2163086
2018-12-13,04:23:09.561,1.0591125,10.061630000000001,2.2359161
2018-12-13,04:23:09.582,0.8041381999999999,10.296982,2.294754
2018-12-13,04:23:09.605,0.45111084,10.610794,2.4320526
2018-12-13,04:23:09.624,0.13729858,10.983444,2.687027
2018-12-13,04:23:09.643,0.31381226,11.552230999999999,3.4323273000000003
2018-12-13,04:23:09.661,0.5491791,11.258041,4.0795593
2018-12-13,04:23:09.690,0.39227295,10.218536,4.805251999999999
2018-12-13,04:23:09.707,-0.05883789,9.414383,5.785919
2018-12-13,04:23:09.723,-0.09806824,8.865219,6.550842299999999
2018-12-13,04:23:09.742,0.7060852,8.31604,6.23703
2018-12-13,04:23:09.761,0.7060852,8.31604,6.23703
2018-12-13,04:23:09.783,1.9809418,7.453048700000001,4.3737639999999995
2018-12-13,04:23:09.805,1.9809418,7.453048700000001,4.3737639999999995
2018-12-13,04:23:09.824,1.5298308999999999,8.100296,3.8246002
2018-12-13,04:23:09.844,0.6864624,8.590622,3.4127197
2018-12-13,04:23:09.861,0.019607543999999998,8.806366,3.4323273000000003
2018-12-13,04:23:09.888,-0.72569275,8.806366,3.2754211
2018-12-13,04:23:09.905,-1.2160187,8.610244999999999,3.3538818
2018-12-13,04:23:09.924,-0.8237610000000001,8.453339,3.0400543
2018-12-13,04:23:09.944,-0.45111084,8.2964325,2.961609
2018-12-13,04:23:09.964,-0.19613647,8.31604,2.9420013
2018-12-13,04:23:09.987,-0.019607543999999998,8.414108,2.7850952
2018-12-13,04:23:10.007,0.039230347,8.590622,2.510498
2018-12-13,04:23:10.025,0.0,8.68869,2.2555237
2018-12-13,04:23:10.045,0.039230347,8.727921,2.137848
2018-12-13,04:23:10.064,0.0,8.629852,2.1770782000000004
2018-12-13,04:23:10.089,0.019607543999999998,8.394485000000001,2.137848
2018-12-13,04:23:10.105,0.0,8.237579,1.9809418
2018-12-13,04:23:10.125,0.0,8.31604,1.8240356
2018-12-13,04:23:10.146,0.019607543999999998,8.767151,1.8828735
2018-12-13,04:23:10.165,-0.07846069,9.590897,2.2163086
2018-12-13,04:23:10.189,-0.11767578,10.414658,2.7262419999999996
2018-12-13,04:23:10.206,0.31381226,10.453888000000001,2.7850952
2018-12-13,04:23:10.226,0.78453064,9.865494,2.5301207999999997
2018-12-13,04:23:10.247,0.49032593,9.787033000000001,2.4320526
2018-12-13,04:23:10.278,-0.09806824,10.4734955,2.5301207999999997
2018-12-13,04:23:10.295,-0.37265015,11.493393,2.8243103
2018-12-13,04:23:10.308,-0.11767578,11.866043,3.4127197
2018-12-13,04:23:10.326,0.37265015,11.5130005,3.9226532
2018-12-13,04:23:10.347,1.5886841,10.551956,4.4522247
2018-12-13,04:23:10.372,2.687027,9.198639,5.0602264
2018-12-13,04:23:10.390,2.6674042,8.708298,5.785919
2018-12-13,04:23:10.408,1.4513855,8.727921,5.589798
2018-12-13,04:23:10.428,0.5491791,8.629852,4.864105
2018-12-13,04:23:10.454,0.78453064,8.708298,4.059952
2018-12-13,04:23:10.473,0.9806671,9.002502,3.393097
2018-12-13,04:23:10.490,1.3925476,8.963272,2.961609
2018-12-13,04:23:10.508,2.0594025,8.414108,2.510498
2018-12-13,04:23:10.529,1.9809418,8.198364,2.3732147
2018-12-13,04:23:10.548,1.7455901999999999,7.9629974,2.1770782000000004
2018-12-13,04:23:10.572,1.4906158,7.864928999999999,2.2555237
2018-12-13,04:23:10.589,1.2944794,7.8453217,2.510498
2018-12-13,04:23:10.608,1.0198975000000001,7.9041595000000004,2.5497284
2018-12-13,04:23:10.628,0.84336853,8.159134,2.4908905
2018-12-13,04:23:10.655,0.64723206,8.394485000000001,2.2555237
2018-12-13,04:23:10.674,0.60801697,8.649460000000001,2.2359161
2018-12-13,04:23:10.691,0.45111084,8.943665,2.1966857999999996
2018-12-13,04:23:10.709,0.3334198,9.022125,2.1770782000000004
2018-12-13,04:23:10.728,0.3530426,9.080963,2.0986176
2018-12-13,04:23:10.750,0.60801697,9.100571,2.1182404
2018-12-13,04:23:10.782,0.9218291999999999,9.06134,2.07901
2018-12-13,04:23:10.789,1.0983428999999998,9.06134,1.9417113999999998
2018-12-13,04:23:10.810,0.9022064000000001,9.179031,1.9024963
2018-12-13,04:23:10.830,0.64723206,9.473221,2.0594025
2018-12-13,04:23:10.851,0.3334198,9.826263,2.3732147
2018-12-13,04:23:10.874,-0.15690613,10.159683,2.5497284
2018-12-13,04:23:10.890,-0.6276245,10.453888000000001,2.7850952
2018-12-13,04:23:10.910,-0.58839417,10.826538000000001,3.1381226000000004
2018-12-13,04:23:10.931,-0.039230347,11.14035,3.3146515
2018-12-13,04:23:10.954,0.50994873,11.493393,3.6088410000000004
2018-12-13,04:23:10.973,0.64723206,10.865768,3.9226532
2018-12-13,04:23:10.991,0.49032593,9.4339905,4.49144
2018-12-13,04:23:11.011,0.50994873,8.531784,5.217132599999999
2018-12-13,04:23:11.031,0.5295563,8.708298,5.864380000000001
2018-12-13,04:23:11.054,0.9022064000000001,8.924057000000001,5.923218
2018-12-13,04:23:11.075,1.3337097,8.629852,5.3740387
2018-12-13,04:23:11.092,0.9806671,8.531784,4.6679688
2018-12-13,04:23:11.112,0.39227295,8.669083,3.883438
2018-12-13,04:23:11.132,0.039230347,8.786758,3.4911652
2018-12-13,04:23:11.155,-0.45111084,8.669083,3.2558136
2018-12-13,04:23:11.173,-0.94143677,8.433716,3.1969604
2018-12-13,04:23:11.193,-1.0002746999999999,8.159134,3.2361908
2018-12-13,04:23:11.213,-0.84336853,8.002228,3.1577453999999996
2018-12-13,04:23:11.233,-0.7453003,7.923767,3.0792847
2018-12-13,04:23:11.254,-0.50994873,8.002228,2.961609
2018-12-13,04:23:11.277,-0.39227295,8.217972,2.7458649
2018-12-13,04:23:11.296,-0.3334198,8.531784,2.4124298
2018-12-13,04:23:11.313,-0.21574402,8.767151,2.1770782000000004
2018-12-13,04:23:11.338,-0.19613647,8.727921,2.020172
2018-12-13,04:23:11.355,-0.19613647,8.727921,2.020172
2018-12-13,04:23:11.372,-0.21574402,8.551392,1.863266
2018-12-13,04:23:11.395,-0.05883789,8.433716,1.7259673999999998
2018-12-13,04:23:11.415,0.0,8.355269999999999,1.8044281000000002
2018-12-13,04:23:11.438,0.09806824,8.610244999999999,1.9613342
2018-12-13,04:23:11.457,0.13729858,9.159409,2.1574554
2018-12-13,04:23:11.477,0.17651367,9.845871,2.6085662999999997
2018-12-13,04:23:11.495,0.3530426,10.571564,3.0400543
2018-12-13,04:23:11.515,0.9022064000000001,10.434280000000001,3.1381226000000004
2018-12-13,04:23:11.538,1.0591125,9.865494,2.7850952
2018-12-13,04:23:11.557,0.8041381999999999,10.296982,2.7458649
2018-12-13,04:23:11.575,0.6864624,11.238419,2.7850952
2018-12-13,04:23:11.594,0.8041381999999999,11.630692,3.0792847
2018-12-13,04:23:11.616,0.9022064000000001,11.14035,3.550003
2018-12-13,04:23:11.649,0.94143677,10.218536,3.9030457000000003
2018-12-13,04:23:11.657,0.5491791,9.139801,4.216858
2018-12-13,04:23:11.689,0.05883789,8.786758,4.7268066
2018-12-13,04:23:11.694,-0.45111084,9.159409,5.236755400000001
2018-12-13,04:23:11.724,0.05883789,9.512450999999999,5.5113373
2018-12-13,04:23:11.738,0.86299133,9.257477,5.275970500000001
2018-12-13,04:23:11.758,1.2748718,8.982895,4.5699005
2018-12-13,04:23:11.777,1.5690613000000002,8.786758,3.7069092000000006
2018-12-13,04:23:11.797,1.8240356,8.865219,2.8635406000000003
2018-12-13,04:23:11.817,2.2751465,8.68869,2.3732147
2018-12-13,04:23:11.839,1.9221039,8.335647999999999,2.3339844
2018-12-13,04:23:11.859,1.6082916,8.159134,2.294754
2018-12-13,04:23:11.877,1.3729248,8.100296,2.4124298
2018-12-13,04:23:11.897,1.0198975000000001,8.021835000000001,2.8047028
2018-12-13,04:23:11.924,0.6864624,8.100296,3.0008392
2018-12-13,04:23:11.944,0.49032593,8.257202000000001,2.9420013
2018-12-13,04:23:11.958,0.5687866,8.414108,2.687027
2018-12-13,04:23:11.978,0.7453003,8.551392,2.353592
2018-12-13,04:23:11.999,0.8041381999999999,8.531784,2.137848
2018-12-13,04:23:12.022,0.7649231,8.5121765,1.9417113999999998
2018-12-13,04:23:12.038,0.66685486,8.492554,1.8240356
2018-12-13,04:23:12.060,0.7649231,8.571014,2.07901
2018-12-13,04:23:12.078,0.84336853,8.610244999999999,2.137848
2018-12-13,04:23:12.099,0.8041381999999999,8.669083,2.294754
2018-12-13,04:23:12.121,0.5491791,9.120178,2.569336
2018-12-13,04:23:12.141,0.17651367,9.669357000000002,2.7654723999999997
2018-12-13,04:23:12.160,0.0,10.002777,2.8635406000000003
2018-12-13,04:23:12.181,-0.17651367,10.159683,2.8635406000000003
2018-12-13,04:23:12.206,-0.23536682,10.414658,2.961609
2018-12-13,04:23:12.224,-0.019607543999999998,11.454163000000001,3.0596771
2018-12-13,04:23:12.239,0.31381226,12.06218,3.3146515
2018-12-13,04:23:12.261,0.64723206,10.865768,3.6480713
2018-12-13,04:23:12.280,0.72569275,9.512450999999999,4.707199
2018-12-13,04:23:12.300,0.5687866,9.257477,6.23703
2018-12-13,04:23:12.322,0.7453003,9.630127,7.1588593
2018-12-13,04:23:12.341,1.431778,9.100571,6.590072599999999
2018-12-13,04:23:12.361,1.5494537,8.061066,5.099457
2018-12-13,04:23:12.381,1.0002746999999999,8.100296,3.9815062999999995
2018-12-13,04:23:12.406,0.37265015,8.649460000000001,3.2950287000000005
2018-12-13,04:23:12.424,-0.039230347,8.884827,2.961609
2018-12-13,04:23:12.441,-0.50994873,8.68869,2.9420013
2018-12-13,04:23:12.462,-0.9218291999999999,8.472946,3.334259
2018-12-13,04:23:12.482,-0.9218291999999999,8.276810000000001,3.0989075
2018-12-13,04:23:12.502,-0.5687866,8.002228,2.7850952
2018-12-13,04:23:12.523,-0.31381226,7.884552,2.7066345000000003
2018-12-13,04:23:12.542,0.0,7.923767,2.5301207999999997
2018-12-13,04:23:12.561,0.23536682,8.276810000000001,2.353592
2018-12-13,04:23:12.583,0.27458190000000005,8.5121765,2.0986176
2018-12-13,04:23:12.605,0.17651367,8.68869,2.0397797
2018-12-13,04:23:12.623,-0.11767578,8.708298,2.020172
2018-12-13,04:23:12.643,-0.21574402,8.590622,2.07901
2018-12-13,04:23:12.664,-0.25497437,8.394485000000001,2.0986176
2018-12-13,04:23:12.692,-0.17651367,8.355269999999999,2.0594025
2018-12-13,04:23:12.707,-0.19613647,8.708298,2.137848
2018-12-13,04:23:12.723,-0.25497437,9.4339905,2.4124298
2018-12-13,04:23:12.743,-0.13729858,10.061630000000001,2.8831482000000004
2018-12-13,04:23:12.765,0.21574402,10.0224,2.9223784999999998
2018-12-13,04:23:12.783,0.5687866,9.571289,2.7262419999999996
2018-12-13,04:23:12.806,0.37265015,9.845871,2.8047028
2018-12-13,04:23:12.824,-0.09806824,10.983444,2.961609
2018-12-13,04:23:12.844,-0.21574402,12.003342,3.2165833
2018-12-13,04:23:12.865,0.05883789,11.826813000000001,3.510788
2018-12-13,04:23:12.891,0.05883789,11.826813000000001,3.510788
2018-12-13,04:23:12.906,1.2944794,10.257750999999999,3.8246002
2018-12-13,04:23:12.925,1.2944794,10.257750999999999,3.8246002
2018-12-13,04:23:12.945,1.863266,9.355545,4.5110626
2018-12-13,04:23:12.966,1.9613342,8.845596,5.0798492
2018-12-13,04:23:12.985,1.5494537,8.982895,5.727081299999999
2018-12-13,04:23:13.007,0.60801697,8.982895,5.570175
2018-12-13,04:23:13.026,0.0,8.571014,4.9033203
2018-12-13,04:23:13.046,0.37265015,8.531784,4.15802
2018-12-13,04:23:13.067,0.8041381999999999,8.924057000000001,3.5696258999999997
2018-12-13,04:23:13.095,1.0198975000000001,9.06134,3.118515
2018-12-13,04:23:13.108,1.5102233999999999,8.806366,2.9223784999999998
2018-12-13,04:23:13.126,2.353592,8.453339,2.6674042
2018-12-13,04:23:13.148,2.0594025,8.335647999999999,2.4124298
2018-12-13,04:23:13.167,1.7063598999999998,8.217972,2.5497284
2018-12-13,04:23:13.188,1.255249,8.041458,2.6674042
2018-12-13,04:23:13.208,0.78453064,8.159134,2.7262419999999996
2018-12-13,04:23:13.227,0.49032593,8.374878,2.6085662999999997
2018-12-13,04:23:13.247,0.27458190000000005,8.708298,2.4320526
2018-12-13,04:23:13.274,0.31381226,8.845596,2.353592
2018-12-13,04:23:13.293,0.37265015,8.884827,2.4124298
2018-12-13,04:23:13.307,0.47071838,8.825989,2.3732147
2018-12-13,04:23:13.328,0.7060852,8.767151,2.4320526
2018-12-13,04:23:13.348,1.0591125,8.629852,2.3143768
2018-12-13,04:23:13.372,1.4513855,8.433716,2.1966857999999996
2018-12-13,04:23:13.390,1.3729248,8.414108,2.0397797
2018-12-13,04:23:13.408,1.1179656999999998,8.629852,2.020172
2018-12-13,04:23:13.428,0.8041381999999999,9.100571,2.5889587000000005
2018-12-13,04:23:13.449,0.07846069,9.64975,2.961609
2018-12-13,04:23:13.472,-1.039505,10.0224,3.1381226000000004
2018-12-13,04:23:13.492,-1.9809418,10.081238,2.8439330000000003
2018-12-13,04:23:13.509,-1.255249,10.061630000000001,2.7066345000000003
2018-12-13,04:23:13.528,-0.39227295,10.983444,2.8047028
2018-12-13,04:23:13.550,0.47071838,12.081787,3.0989075
2018-12-13,04:23:13.576,0.6276245,11.552230999999999,3.6480713
2018-12-13,04:23:13.592,0.37265015,10.39505,4.7856445
2018-12-13,04:23:13.610,-0.15690613,9.5516815,5.90361
2018-12-13,04:23:13.632,0.0,8.727921,6.60968
2018-12-13,04:23:13.649,0.9022064000000001,7.9826202,6.001663
2018-12-13,04:23:13.678,1.2356415,7.139236500000001,4.746414
2018-12-13,04:23:13.700,1.6671295,7.354980499999999,3.5892334000000004
2018-12-13,04:23:13.710,1.1179656999999998,8.257202000000001,3.3734894
2018-12-13,04:23:13.730,0.45111084,8.806366,3.177353
2018-12-13,04:23:13.758,-0.2942047,9.139801,3.3538818
2018-12-13,04:23:13.775,-0.9218291999999999,9.257477,3.8049774
2018-12-13,04:23:13.791,-1.0198975000000001,8.924057000000001,3.550003
2018-12-13,04:23:13.811,-0.7453003,8.610244999999999,3.118515
2018-12-13,04:23:13.831,-0.41188050000000004,8.472946,3.0400543
2018-12-13,04:23:13.855,-0.17651367,8.551392,3.0400543
2018-12-13,04:23:13.875,0.019607543999999998,8.669083,2.902771
2018-12-13,04:23:13.893,0.13729858,8.669083,2.7458649
2018-12-13,04:23:13.912,0.11767578,8.649460000000001,2.5497284
2018-12-13,04:23:13.932,0.019607543999999998,8.551392,2.569336
2018-12-13,04:23:13.954,-0.05883789,8.414108,2.569336
2018-12-13,04:23:13.972,-0.07846069,8.31604,2.4908905
2018-12-13,04:23:13.993,-0.09806824,8.257202000000001,2.3143768
2018-12-13,04:23:14.012,-0.17651367,8.217972,2.1770782000000004
2018-12-13,04:23:14.032,-0.2942047,8.531784,2.07901
2018-12-13,04:23:14.054,-0.3334198,8.982895,2.1182404
2018-12-13,04:23:14.074,-0.2942047,9.590897,2.2751465
2018-12-13,04:23:14.093,-0.07846069,10.042007,2.5301207999999997
2018-12-13,04:23:14.114,0.3334198,10.081238,2.5301207999999997
2018-12-13,04:23:14.151,0.58839417,9.669357000000002,2.353592
2018-12-13,04:23:14.154,0.41188050000000004,9.865494,2.471283
2018-12-13,04:23:14.183,0.039230347,10.669632,2.5889587000000005
2018-12-13,04:23:14.194,0.039230347,11.5130005,2.687027
2018-12-13,04:23:14.215,0.17651367,11.669907,2.961609
2018-12-13,04:23:14.234,0.58839417,11.277649,3.1577453999999996
2018-12-13,04:23:14.258,1.2748718,10.669632,3.4323273000000003
2018-12-13,04:23:14.277,1.7848053,9.924332000000001,4.15802
2018-12-13,04:23:14.294,2.0594025,9.3359375,5.138687
2018-12-13,04:23:14.316,1.4906158,9.355545,5.785919
2018-12-13,04:23:14.338,0.58839417,9.159409,5.7663116
2018-12-13,04:23:14.358,-0.31381226,8.669083,4.981781
2018-12-13,04:23:14.376,-0.17651367,8.374878,4.314926
2018-12-13,04:23:14.394,-0.17651367,8.374878,4.314926
2018-12-13,04:23:14.418,0.5295563,8.727921,3.0989075
2018-12-13,04:23:14.441,0.5295563,8.727921,2.7850952
2018-12-13,04:23:14.457,0.9218291999999999,8.747527999999999,2.7262419999999996
2018-12-13,04:23:14.487,1.255249,8.610244999999999,2.5889587000000005
2018-12-13,04:23:14.502,1.4906158,8.5121765,2.294754
2018-12-13,04:23:14.522,1.3925476,8.433716,2.471283
2018-12-13,04:23:14.541,1.1768036,8.472946,2.7066345000000003
2018-12-13,04:23:14.556,0.9218291999999999,8.414108,2.902771
2018-12-13,04:23:14.576,0.58839417,8.472946,2.961609
2018-12-13,04:23:14.596,0.27458190000000005,8.649460000000001,2.7654723999999997
2018-12-13,04:23:14.617,0.07846069,8.786758,2.628189
2018-12-13,04:23:14.642,0.11767578,8.865219,2.471283
2018-12-13,04:23:14.658,0.15690613,8.825989,2.471283
2018-12-13,04:23:14.678,0.21574402,8.806366,2.5497284
2018-12-13,04:23:14.697,0.23536682,8.669083,2.510498
2018-12-13,04:23:14.716,0.27458190000000005,8.472946,2.2751465
2018-12-13,04:23:14.737,0.3334198,8.414108,2.137848
2018-12-13,04:23:14.758,0.3530426,8.629852,2.07901
2018-12-13,04:23:14.778,0.3334198,9.218246,2.2359161
2018-12-13,04:23:14.801,0.27458190000000005,9.64975,2.5301207999999997
2018-12-13,04:23:14.829,0.27458190000000005,10.002777,2.7066345000000003
2018-12-13,04:23:14.845,-0.019607543999999998,10.061630000000001,2.7458649
2018-12-13,04:23:14.859,-0.17651367,10.100845,2.8439330000000003
2018-12-13,04:23:14.879,-0.039230347,10.551956,2.9812164
2018-12-13,04:23:14.907,0.11767578,11.434555,3.0792847
2018-12-13,04:23:14.925,0.45111084,11.4149475,3.2558136
2018-12-13,04:23:14.940,0.39227295,10.453888000000001,3.510788
2018-12-13,04:23:14.959,-0.039230347,9.492844,4.4718323
2018-12-13,04:23:14.981,-0.49032593,9.100571,5.90361
2018-12-13,04:23:15.000,-0.31381226,9.080963,7.080398599999999
2018-12-13,04:23:15.024,0.86299133,8.571014,6.7077484
2018-12-13,04:23:15.039,1.2160187,7.8060913,5.589798
2018-12-13,04:23:15.061,1.470993,7.727646000000001,4.15802
2018-12-13,04:23:15.081,0.8041381999999999,8.159134,3.1969604
2018-12-13,04:23:15.105,0.11767578,8.806366,2.8831482000000004
2018-12-13,04:23:15.121,-0.39227295,8.904434,2.6674042
2018-12-13,04:23:15.141,-0.84336853,8.865219,2.9812164
2018-12-13,04:23:15.160,-0.9218291999999999,8.708298,3.0989075
2018-12-13,04:23:15.181,-0.6864624,8.531784,2.902771
2018-12-13,04:23:15.204,-0.45111084,8.433716,3.0008392
2018-12-13,04:23:15.221,-0.39227295,8.492554,2.902771
2018-12-13,04:23:15.241,-0.3334198,8.629852,2.8635406000000003
2018-12-13,04:23:15.261,-0.2942047,8.825989,2.628189
2018-12-13,04:23:15.288,-0.11767578,8.825989,2.5889587000000005
2018-12-13,04:23:15.305,0.09806824,8.629852,2.3732147
2018-12-13,04:23:15.322,0.09806824,8.453339,2.137848
2018-12-13,04:23:15.342,-0.09806824,8.257202000000001,2.020172
2018-12-13,04:23:15.361,-0.31381226,8.198364,2.0397797
2018-12-13,04:23:15.383,-0.3530426,8.414108,2.0005493000000003
2018-12-13,04:23:15.408,-0.37265015,8.786758,2.137848
2018-12-13,04:23:15.423,-0.31381226,9.512450999999999,2.510498
2018-12-13,04:23:15.443,0.039230347,10.100845,2.7262419999999996
2018-12-13,04:23:15.463,0.6276245,10.140075999999999,2.7654723999999997
2018-12-13,04:23:15.493,0.6864624,9.98317,2.687027
2018-12-13,04:23:15.510,0.23536682,10.708862,2.8047028
2018-12-13,04:23:15.523,-0.09806824,11.473785000000001,2.8439330000000003
2018-12-13,04:23:15.543,-0.019607543999999998,11.434555,2.961609
2018-12-13,04:23:15.564,0.31381226,10.924605999999999,3.2754211
2018-12-13,04:23:15.582,0.72569275,10.336212,3.4519347999999996
2018-12-13,04:23:15.605,1.0002746999999999,9.708588,3.9815062999999995
2018-12-13,04:23:15.625,0.94143677,9.257477,4.9033203
2018-12-13,04:23:15.644,0.78453064,9.139801,5.5505676
2018-12-13,04:23:15.664,0.15690613,9.080963,5.805542
2018-12-13,04:23:15.689,-0.11767578,8.806366,5.236755400000001
2018-12-13,04:23:15.707,0.2942047,8.727921,4.4129944000000005
2018-12-13,04:23:15.724,0.7453003,9.080963,3.6088410000000004
2018-12-13,04:23:15.744,0.94143677,9.414383,3.0792847
2018-12-13,04:23:15.765,1.4513855,9.296707000000001,2.6674042
2018-12-13,04:23:15.790,2.510498,8.767151,2.4124298
2018-12-13,04:23:15.807,2.1182404,8.531784,2.3143768
2018-12-13,04:23:15.825,1.6671295,8.2964325,2.3143768
2018-12-13,04:23:15.845,1.2160187,8.139526,2.5497284
2018-12-13,04:23:15.866,0.8825989,8.100296,2.7458649
2018-12-13,04:23:15.894,0.66685486,8.178741,2.7066345000000003
2018-12-13,04:23:15.913,0.66685486,8.178741,2.7066345000000003
2018-12-13,04:23:15.928,0.31381226,8.276810000000001,2.3143768
2018-12-13,04:23:15.946,0.17651367,8.394485000000001,2.2751465
2018-12-13,04:23:15.966,0.19613647,8.551392,2.1574554
2018-12-13,04:23:15.988,0.19613647,8.551392,2.1574554
2018-12-13,04:23:16.011,0.2942047,8.68869,2.1770782000000004
2018-12-13,04:23:16.027,0.58839417,8.5121765,2.1182404
2018-12-13,04:23:16.049,0.9218291999999999,8.237579,1.8044281000000002
2018-12-13,04:23:16.067,1.1375732,8.217972,1.5690613000000002
2018-12-13,04:23:16.094,1.0787354,8.845596,1.6671295
2018-12-13,04:23:16.110,0.86299133,9.669357000000002,2.0986176
2018-12-13,04:23:16.126,0.5491791,10.4734955,2.8047028
2018-12-13,04:23:16.149,-0.39227295,10.708862,3.0596771
2018-12-13,04:23:16.171,-0.8237610000000001,10.238144,2.961609
2018-12-13,04:23:16.191,-0.17651367,10.179306,2.7262419999999996
2018-12-13,04:23:16.208,0.21574402,11.297255999999999,2.9223784999999998
2018-12-13,04:23:16.227,0.39227295,12.14064,2.9812164
2018-12-13,04:23:16.248,0.3530426,11.238419,3.1577453999999996
2018-12-13,04:23:16.294,0.039230347,10.3754425,3.9226532
2018-12-13,04:23:16.304,-0.31381226,10.198914,5.6682434
2018-12-13,04:23:16.311,0.31381226,9.728195,6.903885000000001
2018-12-13,04:23:16.331,1.431778,8.571014,6.629303
2018-12-13,04:23:16.357,1.5690613000000002,7.433441,5.432876599999999
2018-12-13,04:23:16.373,1.3337097,7.825714,4.040344
2018-12-13,04:23:16.389,0.5491791,8.610244999999999,3.1969604
2018-12-13,04:23:16.409,-0.07846069,8.845596,2.6674042
2018-12-13,04:23:16.429,-0.7649231,8.924057000000001,2.5889587000000005
2018-12-13,04:23:16.449,-1.470993,8.806366,3.0008392
2018-12-13,04:23:16.480,-1.2944794,8.472946,2.7850952
2018-12-13,04:23:16.495,-0.8825989,8.100296,2.3928222999999997
2018-12-13,04:23:16.510,-0.50994873,7.9826202,2.353592
2018-12-13,04:23:16.530,-0.23536682,8.002228,2.3143768
2018-12-13,04:23:16.555,-0.13729858,8.31604,2.3339844
2018-12-13,04:23:16.572,-0.17651367,8.610244999999999,2.2163086
2018-12-13,04:23:16.590,-0.25497437,8.865219,2.1770782000000004
2018-12-13,04:23:16.611,-0.3334198,8.982895,2.2359161
2018-12-13,04:23:16.631,-0.39227295,8.904434,2.1966857999999996
2018-12-13,04:23:16.656,-0.37265015,8.610244999999999,2.1574554
2018-12-13,04:23:16.675,-0.43148804,8.433716,2.0005493000000003
2018-12-13,04:23:16.692,-0.5687866,8.649460000000001,1.8240356
2018-12-13,04:23:16.711,-0.6864624,9.237869,1.9417113999999998
2018-12-13,04:23:16.731,-0.58839417,10.081238,2.353592
2018-12-13,04:23:16.756,-0.17651367,10.551956,2.510498
2018-12-13,04:23:16.773,0.45111084,10.159683,2.4124298
2018-12-13,04:23:16.792,0.64723206,10.159683,2.3143768
2018-12-13,04:23:16.812,0.25497437,10.963837,2.510498
2018-12-13,04:23:16.832,0.15690613,11.650299,2.7850952
2018-12-13,04:23:16.861,0.3530426,11.571854,3.0989075
2018-12-13,04:23:16.873,0.6276245,10.885375999999999,3.2165833
2018-12-13,04:23:16.894,0.86299133,10.257750999999999,3.2754211
2018-12-13,04:23:16.912,0.7060852,9.904724,4.15802
2018-12-13,04:23:16.932,0.5295563,9.708588,5.432876599999999
2018-12-13,04:23:16.961,0.31381226,9.5516815,6.080124
2018-12-13,04:23:16.973,0.019607543999999998,9.06134,5.746704
2018-12-13,04:23:16.993,0.09806824,8.610244999999999,4.805251999999999
2018-12-13,04:23:17.014,0.5295563,8.610244999999999,3.8246002
2018-12-13,04:23:17.038,0.9022064000000001,8.845596,3.0008392
2018-12-13,04:23:17.055,1.0198975000000001,8.708298,2.4320526
2018-12-13,04:23:17.074,1.7259673999999998,8.374878,2.07901
2018-12-13,04:23:17.095,1.9809418,8.178741,2.0005493000000003
2018-12-13,04:23:17.114,1.9024963,8.2964325,2.0005493000000003
2018-12-13,04:23:17.134,1.7651978,8.335647999999999,2.3143768
2018-12-13,04:23:17.157,1.3925476,8.355269999999999,2.7262419999999996
2018-12-13,04:23:17.175,0.94143677,8.453339,2.8831482000000004
2018-12-13,04:23:17.193,0.60801697,8.68869,2.7458649
2018-12-13,04:23:17.215,0.39227295,8.825989,2.4320526
2018-12-13,04:23:17.237,0.19613647,9.022125,2.1966857999999996
2018-12-13,04:23:17.256,0.019607543999999998,9.022125,2.0986176
2018-12-13,04:23:17.276,-0.05883789,8.982895,2.0594025
2018-12-13,04:23:17.296,0.09806824,8.845596,2.0594025
2018-12-13,04:23:17.323,0.21574402,8.708298,2.0397797
2018-12-13,04:23:17.342,0.43148804,8.825989,2.020172
2018-12-13,04:23:17.364,0.58839417,9.139801,2.0397797
2018-12-13,04:23:17.375,0.72569275,9.512450999999999,2.0397797
2018-12-13,04:23:17.396,0.7453003,9.943939,2.2555237
2018-12-13,04:23:17.415,0.5295563,10.257750999999999,2.6477966
2018-12-13,04:23:17.437,0.0,10.336212,2.7066345000000003
2018-12-13,04:23:17.456,-0.47071838,10.198914,2.902771
2018-12-13,04:23:17.476,-0.3530426,10.434280000000001,3.0400543
2018-12-13,04:23:17.498,-0.07846069,11.199188000000001,3.2165833
2018-12-13,04:23:17.522,-0.07846069,11.199188000000001,3.2165833
2018-12-13,04:23:17.538,-0.31381226,10.042007,3.9226532
2018-12-13,04:23:17.557,-0.31381226,10.042007,3.9226532
2018-12-13,04:23:17.577,-0.6864624,9.218246,4.864105
2018-12-13,04:23:17.605,-0.86299133,9.277084,6.3154755
2018-12-13,04:23:17.620,0.09806824,9.512450999999999,6.5312347
2018-12-13,04:23:17.638,1.4906158,8.806366,6.080124
2018-12-13,04:23:17.658,2.471283,8.041458,5.0210114
2018-12-13,04:23:17.677,2.3339844,8.119904,3.9815062999999995
2018-12-13,04:23:17.699,1.3140869,8.531784,3.4715576
2018-12-13,04:23:17.723,0.45111084,8.708298,3.2558136
2018-12-13,04:23:17.738,-0.45111084,8.649460000000001,3.4127197
2018-12-13,04:23:17.759,-1.431778,8.433716,3.726532
2018-12-13,04:23:17.778,-1.2160187,8.139526,3.4127197
2018-12-13,04:23:17.804,-0.8237610000000001,7.9826202,3.0989075
2018-12-13,04:23:17.821,-0.5491791,7.9041595000000004,2.961609
2018-12-13,04:23:17.839,-0.2942047,8.041458,2.7850952
2018-12-13,04:23:17.860,-0.13729858,8.257202000000001,2.3732147
2018-12-13,04:23:17.879,0.019607543999999998,8.453339,2.1574554
2018-12-13,04:23:17.901,0.21574402,8.551392,1.9809418
2018-12-13,04:23:17.927,0.23536682,8.571014,2.020172
2018-12-13,04:23:17.941,0.21574402,8.590622,2.0594025
2018-12-13,04:23:17.959,0.13729858,8.571014,2.0986176
2018-12-13,04:23:17.981,0.15690613,8.551392,2.1966857999999996
2018-12-13,04:23:18.006,0.25497437,8.571014,2.1966857999999996
2018-12-13,04:23:18.024,0.27458190000000005,8.943665,2.2359161
2018-12-13,04:23:18.041,0.2942047,9.473221,2.510498
2018-12-13,04:23:18.060,0.3530426,10.0224,2.7262419999999996
2018-12-13,04:23:18.091,0.45111084,10.159683,2.8831482000000004
2018-12-13,04:23:18.107,0.5491791,10.002777,2.7654723999999997
2018-12-13,04:23:18.125,0.49032593,10.218536,2.8439330000000003
2018-12-13,04:23:18.143,0.3334198,10.983444,2.7262419999999996
2018-12-13,04:23:18.162,0.3530426,11.630692,2.8635406000000003
2018-12-13,04:23:18.183,0.5491791,11.611069,3.177353
2018-12-13,04:23:18.211,0.7060852,10.806931,3.334259
2018-12-13,04:23:18.222,0.78453064,9.806656,3.3734894
2018-12-13,04:23:18.244,0.5687866,9.002502,3.942276
2018-12-13,04:23:18.261,0.13729858,8.865219,4.746414
2018-12-13,04:23:18.287,-0.21574402,9.159409,5.4917297
2018-12-13,04:23:18.303,-0.3334198,9.179031,5.805542
2018-12-13,04:23:18.326,-0.19613647,9.022125,5.393661499999999
2018-12-13,04:23:18.413,0.21574402,8.982895,4.432601999999999
2018-12-13,04:23:18.414,0.5687866,9.080963,3.726532
2018-12-13,04:23:18.415,0.9610443000000001,9.041733,3.0989075
2018-12-13,04:23:18.416,1.3337097,8.669083,2.628189
2018-12-13,04:23:18.428,1.9024963,8.237579,2.3143768
